"i","rt","response","trial_type","trial_index","time_elapsed","internal_node_id","group1","group2","pair"
1,4226,5,"html-slider-response",2,31733,"0.0-2.0-0.0","D1","H1","D1 H1"
1,3428,4,"html-slider-response",3,35262,"0.0-2.0-0.1","C1","G1","C1 G1"
1,3594,93,"html-slider-response",4,38958,"0.0-2.0-0.2","K1","L1","K1 L1"
1,2971,11,"html-slider-response",5,42030,"0.0-2.0-0.3","C1","F1","C1 F1"
1,2081,70,"html-slider-response",6,44214,"0.0-2.0-0.4","B1","I1","B1 I1"
1,2002,0,"html-slider-response",7,46318,"0.0-2.0-0.5","D1","L1","D1 L1"
1,2545,97,"html-slider-response",8,48967,"0.0-2.0-0.6","A1","B1","A1 B1"
1,1979,14,"html-slider-response",9,51047,"0.0-2.0-0.7","C1","I1","C1 I1"
1,2946,20,"html-slider-response",10,54095,"0.0-2.0-0.8","D1","K1","D1 K1"
1,1874,80,"html-slider-response",11,56071,"0.0-2.0-0.9","I1","K1","I1 K1"
1,2731,93,"html-slider-response",12,58904,"0.0-2.0-0.10","I1","J1","I1 J1"
1,2066,0,"html-slider-response",13,61073,"0.0-2.0-0.11","A1","C1","A1 C1"
1,1945,77,"html-slider-response",14,63120,"0.0-2.0-0.12","B1","H1","B1 H1"
1,1955,86,"html-slider-response",15,65177,"0.0-2.0-0.13","F1","I1","F1 I1"
1,2819,72,"html-slider-response",16,68097,"0.0-2.0-0.14","A1","G1","A1 G1"
1,2932,62,"html-slider-response",17,71131,"0.0-2.0-0.15","G1","K1","G1 K1"
1,1971,66,"html-slider-response",18,73204,"0.0-2.0-0.16","G1","L1","G1 L1"
1,1619,60,"html-slider-response",19,74924,"0.0-2.0-0.17","A1","L1","A1 L1"
1,1531,0,"html-slider-response",20,76556,"0.0-2.0-0.18","A1","D1","A1 D1"
1,2121,92,"html-slider-response",21,78781,"0.0-2.0-0.19","F1","J1","F1 J1"
1,1802,94,"html-slider-response",22,80684,"0.0-2.0-0.20","E1","H1","E1 H1"
1,1803,77,"html-slider-response",23,82589,"0.0-2.0-0.21","H1","J1","H1 J1"
2,3100,79,"html-slider-response",2,12826,"0.0-2.0-0.0","A1","B1","A1 B1"
2,2474,75,"html-slider-response",3,15402,"0.0-2.0-0.1","F1","I1","F1 I1"
2,2338,35,"html-slider-response",4,17845,"0.0-2.0-0.2","C1","G1","C1 G1"
2,2623,89,"html-slider-response",5,20574,"0.0-2.0-0.3","I1","J1","I1 J1"
2,2617,16,"html-slider-response",6,23294,"0.0-2.0-0.4","D1","K1","D1 K1"
2,2944,21,"html-slider-response",7,26340,"0.0-2.0-0.5","C1","I1","C1 I1"
2,2021,11,"html-slider-response",8,28464,"0.0-2.0-0.6","C1","F1","C1 F1"
2,2827,61,"html-slider-response",9,31392,"0.0-2.0-0.7","A1","L1","A1 L1"
2,2567,0,"html-slider-response",10,34063,"0.0-2.0-0.8","A1","D1","A1 D1"
2,2596,74,"html-slider-response",11,36765,"0.0-2.0-0.9","I1","K1","I1 K1"
2,3057,34,"html-slider-response",12,39923,"0.0-2.0-0.10","G1","L1","G1 L1"
2,3421,39,"html-slider-response",13,43450,"0.0-2.0-0.11","B1","I1","B1 I1"
2,2662,26,"html-slider-response",14,46216,"0.0-2.0-0.12","A1","G1","A1 G1"
2,3715,26,"html-slider-response",15,50035,"0.0-2.0-0.13","E1","H1","E1 H1"
2,5629,26,"html-slider-response",16,55767,"0.0-2.0-0.14","A1","C1","A1 C1"
2,2937,0,"html-slider-response",17,58810,"0.0-2.0-0.15","D1","L1","D1 L1"
2,2972,36,"html-slider-response",18,61884,"0.0-2.0-0.16","G1","K1","G1 K1"
2,4132,58,"html-slider-response",19,66120,"0.0-2.0-0.17","K1","L1","K1 L1"
2,2382,27,"html-slider-response",20,68604,"0.0-2.0-0.18","B1","H1","B1 H1"
2,2262,84,"html-slider-response",21,70969,"0.0-2.0-0.19","H1","J1","H1 J1"
2,2427,28,"html-slider-response",22,73500,"0.0-2.0-0.20","D1","H1","D1 H1"
2,2832,83,"html-slider-response",23,76435,"0.0-2.0-0.21","F1","J1","F1 J1"
3,5142,0,"html-slider-response",2,6743,"0.0-2.0-0.0","F1","J1","F1 J1"
3,2196,69,"html-slider-response",3,9040,"0.0-2.0-0.1","I1","K1","I1 K1"
3,1718,0,"html-slider-response",4,10859,"0.0-2.0-0.2","E1","H1","E1 H1"
3,1682,0,"html-slider-response",5,12642,"0.0-2.0-0.3","C1","I1","C1 I1"
3,1615,0,"html-slider-response",6,14357,"0.0-2.0-0.4","D1","H1","D1 H1"
3,1801,80,"html-slider-response",7,16258,"0.0-2.0-0.5","G1","L1","G1 L1"
3,1497,10,"html-slider-response",8,17872,"0.0-2.0-0.6","A1","D1","A1 D1"
3,1368,49,"html-slider-response",9,19341,"0.0-2.0-0.7","F1","I1","F1 I1"
3,1388,9,"html-slider-response",10,20832,"0.0-2.0-0.8","A1","L1","A1 L1"
3,1603,0,"html-slider-response",11,22535,"0.0-2.0-0.9","G1","K1","G1 K1"
3,1655,0,"html-slider-response",12,24292,"0.0-2.0-0.10","A1","C1","A1 C1"
3,1715,62,"html-slider-response",13,26107,"0.0-2.0-0.11","C1","F1","C1 F1"
3,2599,90,"html-slider-response",14,28807,"0.0-2.0-0.12","A1","B1","A1 B1"
3,2517,70,"html-slider-response",15,31440,"0.0-2.0-0.13","B1","H1","B1 H1"
3,2531,100,"html-slider-response",16,34073,"0.0-2.0-0.14","I1","J1","I1 J1"
3,1616,78,"html-slider-response",17,35790,"0.0-2.0-0.15","D1","K1","D1 K1"
3,1801,65,"html-slider-response",18,37692,"0.0-2.0-0.16","H1","J1","H1 J1"
3,2263,49,"html-slider-response",19,40070,"0.0-2.0-0.17","A1","G1","A1 G1"
3,1925,52,"html-slider-response",20,42097,"0.0-2.0-0.18","D1","L1","D1 L1"
3,2454,36,"html-slider-response",21,44653,"0.0-2.0-0.19","C1","G1","C1 G1"
3,3320,89,"html-slider-response",22,48073,"0.0-2.0-0.20","K1","L1","K1 L1"
3,1614,10,"html-slider-response",23,49788,"0.0-2.0-0.21","B1","I1","B1 I1"
4,4771,30,"html-slider-response",2,13278,"0.0-2.0-0.0","C1","G1","C1 G1"
4,2600,69,"html-slider-response",3,15979,"0.0-2.0-0.1","F1","J1","F1 J1"
4,2451,54,"html-slider-response",4,18532,"0.0-2.0-0.2","D1","K1","D1 K1"
4,2551,83,"html-slider-response",5,21185,"0.0-2.0-0.3","A1","B1","A1 B1"
4,3119,92,"html-slider-response",6,24406,"0.0-2.0-0.4","I1","J1","I1 J1"
4,2749,31,"html-slider-response",7,27257,"0.0-2.0-0.5","D1","L1","D1 L1"
4,2091,9,"html-slider-response",8,29451,"0.0-2.0-0.6","A1","C1","A1 C1"
4,2911,39,"html-slider-response",9,32464,"0.0-2.0-0.7","G1","K1","G1 K1"
4,2043,57,"html-slider-response",10,34609,"0.0-2.0-0.8","K1","L1","K1 L1"
4,2118,41,"html-slider-response",11,36829,"0.0-2.0-0.9","G1","L1","G1 L1"
4,2623,36,"html-slider-response",12,39555,"0.0-2.0-0.10","B1","I1","B1 I1"
4,2614,52,"html-slider-response",13,42270,"0.0-2.0-0.11","A1","G1","A1 G1"
4,2229,61,"html-slider-response",14,44601,"0.0-2.0-0.12","F1","I1","F1 I1"
4,2239,59,"html-slider-response",15,46942,"0.0-2.0-0.13","H1","J1","H1 J1"
4,2564,34,"html-slider-response",16,49608,"0.0-2.0-0.14","C1","F1","C1 F1"
4,2426,20,"html-slider-response",17,52136,"0.0-2.0-0.15","C1","I1","C1 I1"
4,2923,88,"html-slider-response",18,55161,"0.0-2.0-0.16","I1","K1","I1 K1"
4,2079,11,"html-slider-response",19,57342,"0.0-2.0-0.17","A1","D1","A1 D1"
4,1930,41,"html-slider-response",20,59374,"0.0-2.0-0.18","B1","H1","B1 H1"
4,3110,40,"html-slider-response",21,62586,"0.0-2.0-0.19","E1","H1","E1 H1"
4,2289,27,"html-slider-response",22,64976,"0.0-2.0-0.20","A1","L1","A1 L1"
4,2217,40,"html-slider-response",23,67296,"0.0-2.0-0.21","D1","H1","D1 H1"
5,2080,64,"html-slider-response",2,748549,"0.0-2.0-0.0","A1","D1","A1 D1"
5,2266,71,"html-slider-response",3,750916,"0.0-2.0-0.1","D1","L1","D1 L1"
5,2738,68,"html-slider-response",4,753757,"0.0-2.0-0.2","C1","G1","C1 G1"
5,1945,67,"html-slider-response",5,755807,"0.0-2.0-0.3","I1","J1","I1 J1"
5,1030,71,"html-slider-response",6,756938,"0.0-2.0-0.4","C1","F1","C1 F1"
5,2972,63,"html-slider-response",7,760013,"0.0-2.0-0.5","K1","L1","K1 L1"
5,1289,38,"html-slider-response",8,761403,"0.0-2.0-0.6","D1","H1","D1 H1"
5,1277,75,"html-slider-response",9,762781,"0.0-2.0-0.7","G1","L1","G1 L1"
5,1438,72,"html-slider-response",10,764323,"0.0-2.0-0.8","A1","B1","A1 B1"
5,1317,73,"html-slider-response",11,765741,"0.0-2.0-0.9","A1","L1","A1 L1"
5,1335,72,"html-slider-response",12,767180,"0.0-2.0-0.10","B1","H1","B1 H1"
5,1344,72,"html-slider-response",13,768625,"0.0-2.0-0.11","F1","J1","F1 J1"
5,1294,74,"html-slider-response",14,770022,"0.0-2.0-0.12","I1","K1","I1 K1"
5,1986,78,"html-slider-response",15,772111,"0.0-2.0-0.13","B1","I1","B1 I1"
5,1866,71,"html-slider-response",16,774079,"0.0-2.0-0.14","F1","I1","F1 I1"
5,2184,67,"html-slider-response",17,776365,"0.0-2.0-0.15","C1","I1","C1 I1"
5,1746,79,"html-slider-response",18,778212,"0.0-2.0-0.16","A1","C1","A1 C1"
5,5093,48,"html-slider-response",19,783407,"0.0-2.0-0.17","D1","K1","D1 K1"
5,1443,74,"html-slider-response",20,784950,"0.0-2.0-0.18","G1","K1","G1 K1"
5,3204,74,"html-slider-response",21,788257,"0.0-2.0-0.19","H1","J1","H1 J1"
5,2814,69,"html-slider-response",22,791172,"0.0-2.0-0.20","A1","G1","A1 G1"
5,1360,83,"html-slider-response",23,792634,"0.0-2.0-0.21","E1","H1","E1 H1"
6,3382,33,"html-slider-response",2,43066,"0.0-2.0-0.0","G1","L1","G1 L1"
6,2470,36,"html-slider-response",3,45638,"0.0-2.0-0.1","A1","C1","A1 C1"
6,1980,67,"html-slider-response",4,47718,"0.0-2.0-0.2","A1","L1","A1 L1"
6,2246,87,"html-slider-response",5,50066,"0.0-2.0-0.3","I1","K1","I1 K1"
6,1887,18,"html-slider-response",6,52053,"0.0-2.0-0.4","D1","L1","D1 L1"
6,2393,34,"html-slider-response",7,54547,"0.0-2.0-0.5","E1","H1","E1 H1"
6,1884,17,"html-slider-response",8,56532,"0.0-2.0-0.6","D1","K1","D1 K1"
6,2116,55,"html-slider-response",9,58747,"0.0-2.0-0.7","C1","F1","C1 F1"
6,1753,37,"html-slider-response",10,60601,"0.0-2.0-0.8","C1","G1","C1 G1"
6,2115,78,"html-slider-response",11,62816,"0.0-2.0-0.9","H1","J1","H1 J1"
6,2368,77,"html-slider-response",12,65287,"0.0-2.0-0.10","I1","J1","I1 J1"
6,2167,60,"html-slider-response",13,67555,"0.0-2.0-0.11","A1","B1","A1 B1"
6,3197,44,"html-slider-response",14,70852,"0.0-2.0-0.12","A1","G1","A1 G1"
6,1793,9,"html-slider-response",15,72744,"0.0-2.0-0.13","A1","D1","A1 D1"
6,1984,88,"html-slider-response",16,74828,"0.0-2.0-0.14","K1","L1","K1 L1"
6,2406,69,"html-slider-response",17,77334,"0.0-2.0-0.15","F1","I1","F1 I1"
6,2420,45,"html-slider-response",18,79855,"0.0-2.0-0.16","G1","K1","G1 K1"
6,2990,7,"html-slider-response",19,82947,"0.0-2.0-0.17","D1","H1","D1 H1"
6,2349,21,"html-slider-response",20,85397,"0.0-2.0-0.18","B1","I1","B1 I1"
6,2022,73,"html-slider-response",21,87518,"0.0-2.0-0.19","F1","J1","F1 J1"
6,1877,10,"html-slider-response",22,89496,"0.0-2.0-0.20","B1","H1","B1 H1"
6,2165,20,"html-slider-response",23,91761,"0.0-2.0-0.21","C1","I1","C1 I1"
7,4114,28,"html-slider-response",2,16373,"0.0-2.0-0.0","F1","J1","F1 J1"
7,2085,0,"html-slider-response",3,18559,"0.0-2.0-0.1","A1","D1","A1 D1"
7,2818,66,"html-slider-response",4,21479,"0.0-2.0-0.2","A1","B1","A1 B1"
7,2086,18,"html-slider-response",5,23665,"0.0-2.0-0.3","C1","F1","C1 F1"
7,2690,100,"html-slider-response",6,26456,"0.0-2.0-0.4","K1","L1","K1 L1"
7,2065,0,"html-slider-response",7,28622,"0.0-2.0-0.5","D1","H1","D1 H1"
7,1765,100,"html-slider-response",8,30488,"0.0-2.0-0.6","I1","J1","I1 J1"
7,2306,0,"html-slider-response",9,32897,"0.0-2.0-0.7","A1","C1","A1 C1"
7,3751,82,"html-slider-response",10,36750,"0.0-2.0-0.8","I1","K1","I1 K1"
7,4575,13,"html-slider-response",11,41426,"0.0-2.0-0.9","E1","H1","E1 H1"
7,2627,76,"html-slider-response",12,44154,"0.0-2.0-0.10","C1","G1","C1 G1"
7,7002,0,"html-slider-response",13,51258,"0.0-2.0-0.11","B1","I1","B1 I1"
7,2125,100,"html-slider-response",14,53486,"0.0-2.0-0.12","H1","J1","H1 J1"
7,2328,14,"html-slider-response",15,55915,"0.0-2.0-0.13","B1","H1","B1 H1"
7,2166,13,"html-slider-response",16,58182,"0.0-2.0-0.14","G1","L1","G1 L1"
7,2407,0,"html-slider-response",17,60690,"0.0-2.0-0.15","A1","G1","A1 G1"
7,2056,100,"html-slider-response",18,62848,"0.0-2.0-0.16","C1","I1","C1 I1"
7,2927,0,"html-slider-response",19,65876,"0.0-2.0-0.17","D1","K1","D1 K1"
7,2446,15,"html-slider-response",20,68425,"0.0-2.0-0.18","D1","L1","D1 L1"
7,3471,51,"html-slider-response",21,71997,"0.0-2.0-0.19","A1","L1","A1 L1"
7,7153,82,"html-slider-response",22,79251,"0.0-2.0-0.20","G1","K1","G1 K1"
7,6801,45,"html-slider-response",23,86154,"0.0-2.0-0.21","F1","I1","F1 I1"
8,4752,18,"html-slider-response",2,1582707,"0.0-2.0-0.0","F1","I1","F1 I1"
8,3185,77,"html-slider-response",3,1585993,"0.0-2.0-0.1","C1","I1","C1 I1"
8,1950,5,"html-slider-response",4,1588046,"0.0-2.0-0.2","A1","C1","A1 C1"
8,2488,42,"html-slider-response",5,1590635,"0.0-2.0-0.3","A1","G1","A1 G1"
8,1725,100,"html-slider-response",6,1592460,"0.0-2.0-0.4","F1","J1","F1 J1"
8,3095,43,"html-slider-response",7,1595658,"0.0-2.0-0.5","D1","H1","D1 H1"
8,3004,11,"html-slider-response",8,1598763,"0.0-2.0-0.6","I1","K1","I1 K1"
8,2892,1,"html-slider-response",9,1601756,"0.0-2.0-0.7","D1","L1","D1 L1"
8,1615,95,"html-slider-response",10,1603472,"0.0-2.0-0.8","H1","J1","H1 J1"
8,1972,65,"html-slider-response",11,1605544,"0.0-2.0-0.9","B1","I1","B1 I1"
8,2004,0,"html-slider-response",12,1607651,"0.0-2.0-0.10","B1","H1","B1 H1"
8,2327,26,"html-slider-response",13,1610081,"0.0-2.0-0.11","G1","L1","G1 L1"
8,1710,24,"html-slider-response",14,1611893,"0.0-2.0-0.12","K1","L1","K1 L1"
8,1815,85,"html-slider-response",15,1613809,"0.0-2.0-0.13","I1","J1","I1 J1"
8,2091,100,"html-slider-response",16,1616001,"0.0-2.0-0.14","A1","D1","A1 D1"
8,50038,15,"html-slider-response",17,1666141,"0.0-2.0-0.15","A1","L1","A1 L1"
8,1778,94,"html-slider-response",18,1668021,"0.0-2.0-0.16","A1","B1","A1 B1"
8,1946,20,"html-slider-response",19,1670071,"0.0-2.0-0.17","E1","H1","E1 H1"
8,2052,57,"html-slider-response",20,1672227,"0.0-2.0-0.18","D1","K1","D1 K1"
8,1873,18,"html-slider-response",21,1674202,"0.0-2.0-0.19","C1","G1","C1 G1"
8,2291,16,"html-slider-response",22,1676593,"0.0-2.0-0.20","G1","K1","G1 K1"
8,1893,7,"html-slider-response",23,1678587,"0.0-2.0-0.21","C1","F1","C1 F1"
9,3604,35,"html-slider-response",2,16079,"0.0-2.0-0.0","I1","J1","I1 J1"
9,3763,7,"html-slider-response",3,19944,"0.0-2.0-0.1","C1","F1","C1 F1"
9,2774,8,"html-slider-response",4,22820,"0.0-2.0-0.2","E1","H1","E1 H1"
9,2335,60,"html-slider-response",5,25256,"0.0-2.0-0.3","K1","L1","K1 L1"
9,3211,24,"html-slider-response",6,28568,"0.0-2.0-0.4","D1","K1","D1 K1"
9,3180,44,"html-slider-response",7,31850,"0.0-2.0-0.5","A1","G1","A1 G1"
9,2563,31,"html-slider-response",8,34514,"0.0-2.0-0.6","H1","J1","H1 J1"
9,2445,0,"html-slider-response",9,37060,"0.0-2.0-0.7","A1","C1","A1 C1"
9,2047,0,"html-slider-response",10,39208,"0.0-2.0-0.8","A1","D1","A1 D1"
9,2414,38,"html-slider-response",11,41724,"0.0-2.0-0.9","F1","I1","F1 I1"
9,2447,17,"html-slider-response",12,44272,"0.0-2.0-0.10","B1","I1","B1 I1"
9,2211,12,"html-slider-response",13,46584,"0.0-2.0-0.11","D1","L1","D1 L1"
9,1999,43,"html-slider-response",14,48684,"0.0-2.0-0.12","A1","L1","A1 L1"
9,2196,28,"html-slider-response",15,50983,"0.0-2.0-0.13","G1","L1","G1 L1"
9,2320,36,"html-slider-response",16,53404,"0.0-2.0-0.14","G1","K1","G1 K1"
9,2149,39,"html-slider-response",17,55654,"0.0-2.0-0.15","I1","K1","I1 K1"
9,2421,0,"html-slider-response",18,58176,"0.0-2.0-0.16","D1","H1","D1 H1"
9,2267,22,"html-slider-response",19,60544,"0.0-2.0-0.17","B1","H1","B1 H1"
9,2523,15,"html-slider-response",20,63168,"0.0-2.0-0.18","C1","G1","C1 G1"
9,3423,59,"html-slider-response",21,66692,"0.0-2.0-0.19","A1","B1","A1 B1"
9,2272,60,"html-slider-response",22,69066,"0.0-2.0-0.20","F1","J1","F1 J1"
9,2227,15,"html-slider-response",23,71394,"0.0-2.0-0.21","C1","I1","C1 I1"
10,7712,33,"html-slider-response",2,16070,"0.0-2.0-0.0","I1","J1","I1 J1"
10,2224,0,"html-slider-response",3,18395,"0.0-2.0-0.1","B1","H1","B1 H1"
10,2419,68,"html-slider-response",4,20916,"0.0-2.0-0.2","A1","L1","A1 L1"
10,1796,0,"html-slider-response",5,22812,"0.0-2.0-0.3","C1","G1","C1 G1"
10,2822,15,"html-slider-response",6,25736,"0.0-2.0-0.4","A1","B1","A1 B1"
10,2150,70,"html-slider-response",7,27986,"0.0-2.0-0.5","I1","K1","I1 K1"
10,2386,0,"html-slider-response",8,30474,"0.0-2.0-0.6","A1","D1","A1 D1"
10,2277,0,"html-slider-response",9,32853,"0.0-2.0-0.7","D1","L1","D1 L1"
10,1854,61,"html-slider-response",10,34808,"0.0-2.0-0.8","H1","J1","H1 J1"
10,1994,0,"html-slider-response",11,36903,"0.0-2.0-0.9","E1","H1","E1 H1"
10,1993,0,"html-slider-response",12,38997,"0.0-2.0-0.10","C1","F1","C1 F1"
10,1812,0,"html-slider-response",13,40909,"0.0-2.0-0.11","B1","I1","B1 I1"
10,1680,3,"html-slider-response",14,42689,"0.0-2.0-0.12","F1","I1","F1 I1"
10,1905,0,"html-slider-response",15,44695,"0.0-2.0-0.13","D1","H1","D1 H1"
10,1480,0,"html-slider-response",16,46276,"0.0-2.0-0.14","A1","G1","A1 G1"
10,1987,0,"html-slider-response",17,48365,"0.0-2.0-0.15","D1","K1","D1 K1"
10,2567,0,"html-slider-response",18,51033,"0.0-2.0-0.16","F1","J1","F1 J1"
10,2116,0,"html-slider-response",19,53251,"0.0-2.0-0.17","A1","C1","A1 C1"
10,7065,0,"html-slider-response",20,60417,"0.0-2.0-0.18","C1","I1","C1 I1"
10,2983,0,"html-slider-response",21,63501,"0.0-2.0-0.19","K1","L1","K1 L1"
10,2249,0,"html-slider-response",22,65853,"0.0-2.0-0.20","G1","K1","G1 K1"
10,1860,0,"html-slider-response",23,67814,"0.0-2.0-0.21","G1","L1","G1 L1"
11,1447,95,"html-slider-response",2,4337,"0.0-2.0-0.0","A1","L1","A1 L1"
11,1437,69,"html-slider-response",3,5877,"0.0-2.0-0.1","B1","I1","B1 I1"
11,864,30,"html-slider-response",4,6843,"0.0-2.0-0.2","D1","K1","D1 K1"
11,896,61,"html-slider-response",5,7840,"0.0-2.0-0.3","I1","K1","I1 K1"
11,906,42,"html-slider-response",6,8848,"0.0-2.0-0.4","A1","D1","A1 D1"
11,3572,62,"html-slider-response",7,12523,"0.0-2.0-0.5","G1","K1","G1 K1"
11,12571,67,"html-slider-response",8,25194,"0.0-2.0-0.6","G1","L1","G1 L1"
11,1032,63,"html-slider-response",9,26330,"0.0-2.0-0.7","B1","H1","B1 H1"
11,1092,40,"html-slider-response",10,27524,"0.0-2.0-0.8","F1","I1","F1 I1"
11,1050,69,"html-slider-response",11,28677,"0.0-2.0-0.9","C1","I1","C1 I1"
11,1059,40,"html-slider-response",12,29837,"0.0-2.0-0.10","C1","G1","C1 G1"
11,1443,60,"html-slider-response",13,31382,"0.0-2.0-0.11","E1","H1","E1 H1"
11,1245,40,"html-slider-response",14,32729,"0.0-2.0-0.12","D1","L1","D1 L1"
11,984,66,"html-slider-response",15,33816,"0.0-2.0-0.13","F1","J1","F1 J1"
11,3222,70,"html-slider-response",16,37139,"0.0-2.0-0.14","I1","J1","I1 J1"
11,994,68,"html-slider-response",17,38234,"0.0-2.0-0.15","H1","J1","H1 J1"
11,1338,34,"html-slider-response",18,39675,"0.0-2.0-0.16","K1","L1","K1 L1"
11,1088,63,"html-slider-response",19,40865,"0.0-2.0-0.17","A1","C1","A1 C1"
11,3298,74,"html-slider-response",20,44264,"0.0-2.0-0.18","D1","H1","D1 H1"
11,1339,37,"html-slider-response",21,45707,"0.0-2.0-0.19","A1","B1","A1 B1"
11,1061,64,"html-slider-response",22,46868,"0.0-2.0-0.20","C1","F1","C1 F1"
11,1080,71,"html-slider-response",23,48053,"0.0-2.0-0.21","A1","G1","A1 G1"
12,4104,35,"html-slider-response",2,35416,"0.0-2.0-0.0","G1","K1","G1 K1"
12,2698,27,"html-slider-response",3,38216,"0.0-2.0-0.1","A1","D1","A1 D1"
12,3459,54,"html-slider-response",4,41776,"0.0-2.0-0.2","D1","K1","D1 K1"
12,2635,42,"html-slider-response",5,44512,"0.0-2.0-0.3","D1","L1","D1 L1"
12,3267,99,"html-slider-response",6,47881,"0.0-2.0-0.4","I1","J1","I1 J1"
12,2256,81,"html-slider-response",7,50240,"0.0-2.0-0.5","K1","L1","K1 L1"
12,4147,53,"html-slider-response",8,54488,"0.0-2.0-0.6","E1","H1","E1 H1"
12,2515,54,"html-slider-response",9,57104,"0.0-2.0-0.7","B1","I1","B1 I1"
12,3603,20,"html-slider-response",10,60809,"0.0-2.0-0.8","C1","G1","C1 G1"
12,2217,23,"html-slider-response",11,63129,"0.0-2.0-0.9","C1","F1","C1 F1"
12,2834,93,"html-slider-response",12,66065,"0.0-2.0-0.10","F1","J1","F1 J1"
12,1770,32,"html-slider-response",13,67937,"0.0-2.0-0.11","D1","H1","D1 H1"
12,3146,94,"html-slider-response",14,71185,"0.0-2.0-0.12","H1","J1","H1 J1"
12,2154,4,"html-slider-response",15,73441,"0.0-2.0-0.13","A1","C1","A1 C1"
12,2450,42,"html-slider-response",16,75993,"0.0-2.0-0.14","B1","H1","B1 H1"
12,2290,36,"html-slider-response",17,78385,"0.0-2.0-0.15","A1","G1","A1 G1"
12,2170,44,"html-slider-response",18,80657,"0.0-2.0-0.16","C1","I1","C1 I1"
12,2706,45,"html-slider-response",19,83465,"0.0-2.0-0.17","G1","L1","G1 L1"
12,3225,83,"html-slider-response",20,86793,"0.0-2.0-0.18","A1","L1","A1 L1"
12,2105,65,"html-slider-response",21,89001,"0.0-2.0-0.19","F1","I1","F1 I1"
12,1946,80,"html-slider-response",22,91049,"0.0-2.0-0.20","A1","B1","A1 B1"
12,2242,100,"html-slider-response",23,93393,"0.0-2.0-0.21","I1","K1","I1 K1"
13,2910,30,"html-slider-response",2,3422528,"0.0-2.0-0.0","D1","H1","D1 H1"
13,2220,61,"html-slider-response",3,3424850,"0.0-2.0-0.1","B1","I1","B1 I1"
13,2239,91,"html-slider-response",4,3427191,"0.0-2.0-0.2","I1","K1","I1 K1"
13,1767,17,"html-slider-response",5,3429060,"0.0-2.0-0.3","C1","G1","C1 G1"
13,1708,39,"html-slider-response",6,3430870,"0.0-2.0-0.4","C1","F1","C1 F1"
13,1773,64,"html-slider-response",7,3432745,"0.0-2.0-0.5","C1","I1","C1 I1"
13,1734,70,"html-slider-response",8,3434581,"0.0-2.0-0.6","G1","L1","G1 L1"
13,1922,76,"html-slider-response",9,3436603,"0.0-2.0-0.7","D1","K1","D1 K1"
13,2145,54,"html-slider-response",10,3438850,"0.0-2.0-0.8","A1","G1","A1 G1"
13,1577,16,"html-slider-response",11,3440528,"0.0-2.0-0.9","A1","C1","A1 C1"
13,3074,71,"html-slider-response",12,3443704,"0.0-2.0-0.10","E1","H1","E1 H1"
13,2154,91,"html-slider-response",13,3445962,"0.0-2.0-0.11","A1","B1","A1 B1"
13,2094,97,"html-slider-response",14,3448157,"0.0-2.0-0.12","I1","J1","I1 J1"
13,1659,81,"html-slider-response",15,3449919,"0.0-2.0-0.13","F1","I1","F1 I1"
13,1325,79,"html-slider-response",16,3451345,"0.0-2.0-0.14","H1","J1","H1 J1"
13,1802,96,"html-slider-response",17,3453250,"0.0-2.0-0.15","K1","L1","K1 L1"
13,1785,23,"html-slider-response",18,3455137,"0.0-2.0-0.16","B1","H1","B1 H1"
13,1552,38,"html-slider-response",19,3456789,"0.0-2.0-0.17","G1","K1","G1 K1"
13,1628,12,"html-slider-response",20,3458521,"0.0-2.0-0.18","A1","D1","A1 D1"
13,2598,95,"html-slider-response",21,3461219,"0.0-2.0-0.19","F1","J1","F1 J1"
13,2850,61,"html-slider-response",22,3464172,"0.0-2.0-0.20","A1","L1","A1 L1"
13,1253,66,"html-slider-response",23,3465527,"0.0-2.0-0.21","D1","L1","D1 L1"
14,5480,72,"html-slider-response",2,662073,"0.0-2.0-0.0","B1","H1","B1 H1"
14,4688,75,"html-slider-response",3,666863,"0.0-2.0-0.1","F1","J1","F1 J1"
14,3384,32,"html-slider-response",4,670351,"0.0-2.0-0.2","A1","C1","A1 C1"
14,5759,66,"html-slider-response",5,676211,"0.0-2.0-0.3","I1","J1","I1 J1"
14,2564,58,"html-slider-response",6,678878,"0.0-2.0-0.4","K1","L1","K1 L1"
14,9477,37,"html-slider-response",7,688457,"0.0-2.0-0.5","E1","H1","E1 H1"
14,23615,41,"html-slider-response",8,712175,"0.0-2.0-0.6","F1","I1","F1 I1"
14,3510,45,"html-slider-response",9,715787,"0.0-2.0-0.7","G1","L1","G1 L1"
14,2546,34,"html-slider-response",10,718435,"0.0-2.0-0.8","D1","H1","D1 H1"
14,2320,40,"html-slider-response",11,720861,"0.0-2.0-0.9","A1","G1","A1 G1"
14,2656,24,"html-slider-response",12,723619,"0.0-2.0-0.10","A1","D1","A1 D1"
14,3147,38,"html-slider-response",13,726867,"0.0-2.0-0.11","C1","G1","C1 G1"
14,4792,33,"html-slider-response",14,731759,"0.0-2.0-0.12","C1","I1","C1 I1"
14,2162,36,"html-slider-response",15,734023,"0.0-2.0-0.13","D1","L1","D1 L1"
14,2847,67,"html-slider-response",16,736971,"0.0-2.0-0.14","I1","K1","I1 K1"
14,2050,40,"html-slider-response",17,739121,"0.0-2.0-0.15","C1","F1","C1 F1"
14,2217,41,"html-slider-response",18,741439,"0.0-2.0-0.16","G1","K1","G1 K1"
14,2121,32,"html-slider-response",19,743663,"0.0-2.0-0.17","D1","K1","D1 K1"
14,2316,42,"html-slider-response",20,746081,"0.0-2.0-0.18","B1","I1","B1 I1"
14,2124,62,"html-slider-response",21,748306,"0.0-2.0-0.19","A1","L1","A1 L1"
14,2191,64,"html-slider-response",22,750597,"0.0-2.0-0.20","H1","J1","H1 J1"
14,2337,33,"html-slider-response",23,753037,"0.0-2.0-0.21","A1","B1","A1 B1"
15,3922,15,"html-slider-response",2,14166,"0.0-2.0-0.0","B1","H1","B1 H1"
15,1804,15,"html-slider-response",3,16076,"0.0-2.0-0.1","D1","H1","D1 H1"
15,2184,78,"html-slider-response",4,18366,"0.0-2.0-0.2","I1","J1","I1 J1"
15,1734,13,"html-slider-response",5,20204,"0.0-2.0-0.3","A1","D1","A1 D1"
15,1958,13,"html-slider-response",6,22270,"0.0-2.0-0.4","E1","H1","E1 H1"
15,1470,13,"html-slider-response",7,23844,"0.0-2.0-0.5","C1","G1","C1 G1"
15,1990,77,"html-slider-response",8,25936,"0.0-2.0-0.6","F1","J1","F1 J1"
15,1876,16,"html-slider-response",9,27914,"0.0-2.0-0.7","C1","F1","C1 F1"
15,1610,17,"html-slider-response",10,29628,"0.0-2.0-0.8","G1","L1","G1 L1"
15,1722,17,"html-slider-response",11,31452,"0.0-2.0-0.9","D1","L1","D1 L1"
15,1788,18,"html-slider-response",12,33342,"0.0-2.0-0.10","D1","K1","D1 K1"
15,1328,17,"html-slider-response",13,34774,"0.0-2.0-0.11","B1","I1","B1 I1"
15,1580,22,"html-slider-response",14,36458,"0.0-2.0-0.12","A1","G1","A1 G1"
15,1650,17,"html-slider-response",15,38210,"0.0-2.0-0.13","A1","C1","A1 C1"
15,2152,36,"html-slider-response",16,40464,"0.0-2.0-0.14","F1","I1","F1 I1"
15,2676,64,"html-slider-response",17,43244,"0.0-2.0-0.15","K1","L1","K1 L1"
15,1724,19,"html-slider-response",18,45070,"0.0-2.0-0.16","C1","I1","C1 I1"
15,2402,67,"html-slider-response",19,47576,"0.0-2.0-0.17","I1","K1","I1 K1"
15,2294,20,"html-slider-response",20,49972,"0.0-2.0-0.18","G1","K1","G1 K1"
15,1798,16,"html-slider-response",21,51876,"0.0-2.0-0.19","A1","L1","A1 L1"
15,1344,21,"html-slider-response",22,53326,"0.0-2.0-0.20","H1","J1","H1 J1"
15,1906,45,"html-slider-response",23,55334,"0.0-2.0-0.21","A1","B1","A1 B1"
16,4189,75,"html-slider-response",2,307510,"0.0-2.0-0.0","G1","L1","G1 L1"
16,12672,79,"html-slider-response",3,320284,"0.0-2.0-0.1","A1","B1","A1 B1"
16,2294,14,"html-slider-response",4,322681,"0.0-2.0-0.2","D1","L1","D1 L1"
16,2351,31,"html-slider-response",5,325134,"0.0-2.0-0.3","A1","L1","A1 L1"
16,2742,2,"html-slider-response",6,327977,"0.0-2.0-0.4","C1","F1","C1 F1"
16,2384,0,"html-slider-response",7,330462,"0.0-2.0-0.5","A1","D1","A1 D1"
16,2739,72,"html-slider-response",8,333303,"0.0-2.0-0.6","C1","I1","C1 I1"
16,2212,93,"html-slider-response",9,335618,"0.0-2.0-0.7","I1","J1","I1 J1"
16,1941,92,"html-slider-response",10,337661,"0.0-2.0-0.8","K1","L1","K1 L1"
16,2228,0,"html-slider-response",11,339991,"0.0-2.0-0.9","D1","K1","D1 K1"
16,1940,16,"html-slider-response",12,342035,"0.0-2.0-0.10","F1","I1","F1 I1"
16,2382,12,"html-slider-response",13,344519,"0.0-2.0-0.11","E1","H1","E1 H1"
16,2380,12,"html-slider-response",14,347001,"0.0-2.0-0.12","B1","I1","B1 I1"
16,2152,76,"html-slider-response",15,349255,"0.0-2.0-0.13","C1","G1","C1 G1"
16,3013,7,"html-slider-response",16,352370,"0.0-2.0-0.14","D1","H1","D1 H1"
16,2180,10,"html-slider-response",17,354658,"0.0-2.0-0.15","G1","K1","G1 K1"
16,2217,97,"html-slider-response",18,356978,"0.0-2.0-0.16","I1","K1","I1 K1"
16,1747,84,"html-slider-response",19,358826,"0.0-2.0-0.17","F1","J1","F1 J1"
16,1869,16,"html-slider-response",20,360797,"0.0-2.0-0.18","A1","C1","A1 C1"
16,1858,88,"html-slider-response",21,362758,"0.0-2.0-0.19","A1","G1","A1 G1"
16,2718,79,"html-slider-response",22,365579,"0.0-2.0-0.20","B1","H1","B1 H1"
16,2224,70,"html-slider-response",23,367905,"0.0-2.0-0.21","H1","J1","H1 J1"
17,18810,62,"html-slider-response",2,37522,"0.0-2.0-0.0","C1","G1","C1 G1"
17,5703,0,"html-slider-response",3,43327,"0.0-2.0-0.1","D1","H1","D1 H1"
17,4735,38,"html-slider-response",4,48164,"0.0-2.0-0.2","B1","H1","B1 H1"
17,3893,0,"html-slider-response",5,52160,"0.0-2.0-0.3","G1","L1","G1 L1"
17,5719,94,"html-slider-response",6,57981,"0.0-2.0-0.4","A1","L1","A1 L1"
17,2885,0,"html-slider-response",7,60968,"0.0-2.0-0.5","A1","G1","A1 G1"
17,8064,42,"html-slider-response",8,69134,"0.0-2.0-0.6","H1","J1","H1 J1"
17,11891,20,"html-slider-response",9,81126,"0.0-2.0-0.7","I1","J1","I1 J1"
17,6016,4,"html-slider-response",10,87244,"0.0-2.0-0.8","C1","I1","C1 I1"
17,3719,1,"html-slider-response",11,91064,"0.0-2.0-0.9","A1","C1","A1 C1"
17,2791,0,"html-slider-response",12,93958,"0.0-2.0-0.10","A1","D1","A1 D1"
17,3826,3,"html-slider-response",13,97884,"0.0-2.0-0.11","D1","K1","D1 K1"
17,3648,0,"html-slider-response",14,101634,"0.0-2.0-0.12","D1","L1","D1 L1"
17,4200,10,"html-slider-response",15,105936,"0.0-2.0-0.13","G1","K1","G1 K1"
17,5505,0,"html-slider-response",16,111542,"0.0-2.0-0.14","C1","F1","C1 F1"
17,4755,84,"html-slider-response",17,116398,"0.0-2.0-0.15","F1","J1","F1 J1"
17,3652,73,"html-slider-response",18,120152,"0.0-2.0-0.16","A1","B1","A1 B1"
17,4161,7,"html-slider-response",19,124415,"0.0-2.0-0.17","B1","I1","B1 I1"
17,4333,66,"html-slider-response",20,128850,"0.0-2.0-0.18","E1","H1","E1 H1"
17,4735,91,"html-slider-response",21,133686,"0.0-2.0-0.19","I1","K1","I1 K1"
17,11400,22,"html-slider-response",22,145190,"0.0-2.0-0.20","F1","I1","F1 I1"
17,3724,32,"html-slider-response",23,149015,"0.0-2.0-0.21","K1","L1","K1 L1"
18,6234,28,"html-slider-response",2,19160,"0.0-2.0-0.0","F1","I1","F1 I1"
18,3678,10,"html-slider-response",3,22941,"0.0-2.0-0.1","D1","H1","D1 H1"
18,4184,3,"html-slider-response",4,27227,"0.0-2.0-0.2","A1","G1","A1 G1"
18,4129,39,"html-slider-response",5,31457,"0.0-2.0-0.3","B1","H1","B1 H1"
18,4014,60,"html-slider-response",6,35572,"0.0-2.0-0.4","G1","K1","G1 K1"
18,4964,59,"html-slider-response",7,40637,"0.0-2.0-0.5","C1","I1","C1 I1"
18,2981,26,"html-slider-response",8,43719,"0.0-2.0-0.6","E1","H1","E1 H1"
18,3352,75,"html-slider-response",9,47174,"0.0-2.0-0.7","I1","J1","I1 J1"
18,3815,62,"html-slider-response",10,51089,"0.0-2.0-0.8","F1","J1","F1 J1"
18,3509,28,"html-slider-response",11,54700,"0.0-2.0-0.9","D1","K1","D1 K1"
18,3905,76,"html-slider-response",12,58706,"0.0-2.0-0.10","A1","B1","A1 B1"
18,2946,65,"html-slider-response",13,61754,"0.0-2.0-0.11","K1","L1","K1 L1"
18,5297,7,"html-slider-response",14,67154,"0.0-2.0-0.12","A1","C1","A1 C1"
18,4159,40,"html-slider-response",15,71417,"0.0-2.0-0.13","C1","G1","C1 G1"
18,2834,41,"html-slider-response",16,74353,"0.0-2.0-0.14","H1","J1","H1 J1"
18,3498,72,"html-slider-response",17,77953,"0.0-2.0-0.15","I1","K1","I1 K1"
18,3824,8,"html-slider-response",18,81882,"0.0-2.0-0.16","C1","F1","C1 F1"
18,3045,16,"html-slider-response",19,85030,"0.0-2.0-0.17","G1","L1","G1 L1"
18,3504,2,"html-slider-response",20,88641,"0.0-2.0-0.18","D1","L1","D1 L1"
18,3360,6,"html-slider-response",21,92106,"0.0-2.0-0.19","B1","I1","B1 I1"
18,4329,6,"html-slider-response",22,96538,"0.0-2.0-0.20","A1","D1","A1 D1"
18,3036,5,"html-slider-response",23,99677,"0.0-2.0-0.21","A1","L1","A1 L1"
19,4548,13,"html-slider-response",2,16648,"0.0-2.0-0.0","C1","F1","C1 F1"
19,3322,28,"html-slider-response",3,20072,"0.0-2.0-0.1","C1","G1","C1 G1"
19,2954,38,"html-slider-response",4,23127,"0.0-2.0-0.2","G1","K1","G1 K1"
19,3122,60,"html-slider-response",5,26351,"0.0-2.0-0.3","B1","H1","B1 H1"
19,2722,19,"html-slider-response",6,29175,"0.0-2.0-0.4","E1","H1","E1 H1"
19,3594,76,"html-slider-response",7,32871,"0.0-2.0-0.5","D1","K1","D1 K1"
19,2611,73,"html-slider-response",8,35583,"0.0-2.0-0.6","A1","G1","A1 G1"
19,2666,72,"html-slider-response",9,38351,"0.0-2.0-0.7","A1","L1","A1 L1"
19,3210,80,"html-slider-response",10,41663,"0.0-2.0-0.8","I1","J1","I1 J1"
19,2818,79,"html-slider-response",11,44583,"0.0-2.0-0.9","C1","I1","C1 I1"
19,2890,30,"html-slider-response",12,47574,"0.0-2.0-0.10","H1","J1","H1 J1"
19,3450,9,"html-slider-response",13,51126,"0.0-2.0-0.11","A1","C1","A1 C1"
19,3011,35,"html-slider-response",14,54238,"0.0-2.0-0.12","D1","L1","D1 L1"
19,3189,7,"html-slider-response",15,57529,"0.0-2.0-0.13","A1","D1","A1 D1"
19,2715,90,"html-slider-response",16,60345,"0.0-2.0-0.14","K1","L1","K1 L1"
19,2755,68,"html-slider-response",17,63201,"0.0-2.0-0.15","F1","I1","F1 I1"
19,2546,81,"html-slider-response",18,65848,"0.0-2.0-0.16","F1","J1","F1 J1"
19,3075,83,"html-slider-response",19,69025,"0.0-2.0-0.17","A1","B1","A1 B1"
19,3610,62,"html-slider-response",20,72736,"0.0-2.0-0.18","G1","L1","G1 L1"
19,2674,85,"html-slider-response",21,75513,"0.0-2.0-0.19","I1","K1","I1 K1"
19,2458,18,"html-slider-response",22,78072,"0.0-2.0-0.20","B1","I1","B1 I1"
19,2371,2,"html-slider-response",23,80544,"0.0-2.0-0.21","D1","H1","D1 H1"
20,7135,12,"html-slider-response",2,33264,"0.0-2.0-0.0","D1","L1","D1 L1"
20,5858,33,"html-slider-response",3,39224,"0.0-2.0-0.1","G1","K1","G1 K1"
20,3688,65,"html-slider-response",4,43016,"0.0-2.0-0.2","I1","J1","I1 J1"
20,3549,52,"html-slider-response",5,46671,"0.0-2.0-0.3","K1","L1","K1 L1"
20,4018,0,"html-slider-response",6,50794,"0.0-2.0-0.4","A1","C1","A1 C1"
20,3158,27,"html-slider-response",7,54056,"0.0-2.0-0.5","B1","I1","B1 I1"
20,3216,13,"html-slider-response",8,57377,"0.0-2.0-0.6","C1","F1","C1 F1"
20,3809,48,"html-slider-response",9,61289,"0.0-2.0-0.7","C1","G1","C1 G1"
20,3783,38,"html-slider-response",10,65179,"0.0-2.0-0.8","G1","L1","G1 L1"
20,2673,18,"html-slider-response",11,67961,"0.0-2.0-0.9","F1","J1","F1 J1"
20,3256,53,"html-slider-response",12,71321,"0.0-2.0-0.10","I1","K1","I1 K1"
20,3600,8,"html-slider-response",13,75024,"0.0-2.0-0.11","A1","D1","A1 D1"
20,2879,20,"html-slider-response",14,78006,"0.0-2.0-0.12","A1","G1","A1 G1"
20,5789,37,"html-slider-response",15,83897,"0.0-2.0-0.13","F1","I1","F1 I1"
20,3162,15,"html-slider-response",16,87162,"0.0-2.0-0.14","B1","H1","B1 H1"
20,2842,11,"html-slider-response",17,90109,"0.0-2.0-0.15","C1","I1","C1 I1"
20,5422,40,"html-slider-response",18,95633,"0.0-2.0-0.16","A1","L1","A1 L1"
20,2577,24,"html-slider-response",19,98319,"0.0-2.0-0.17","E1","H1","E1 H1"
20,4200,82,"html-slider-response",20,102622,"0.0-2.0-0.18","H1","J1","H1 J1"
20,3578,12,"html-slider-response",21,106309,"0.0-2.0-0.19","D1","H1","D1 H1"
20,3257,69,"html-slider-response",22,109667,"0.0-2.0-0.20","A1","B1","A1 B1"
20,4841,40,"html-slider-response",23,114611,"0.0-2.0-0.21","D1","K1","D1 K1"
21,4831,32,"html-slider-response",2,24155,"0.0-2.0-0.0","D1","E1","D1 E1"
21,4119,83,"html-slider-response",3,28378,"0.0-2.0-0.1","A1","F1","A1 F1"
21,6622,13,"html-slider-response",4,35108,"0.0-2.0-0.2","C1","E1","C1 E1"
21,6233,19,"html-slider-response",5,41441,"0.0-2.0-0.3","D1","J1","D1 J1"
21,5228,29,"html-slider-response",6,46773,"0.0-2.0-0.4","C1","L1","C1 L1"
21,3989,38,"html-slider-response",7,50862,"0.0-2.0-0.5","C1","J1","C1 J1"
21,4109,11,"html-slider-response",8,55071,"0.0-2.0-0.6","B1","C1","B1 C1"
21,6794,81,"html-slider-response",9,61969,"0.0-2.0-0.7","B1","G1","B1 G1"
21,8140,15,"html-slider-response",10,70208,"0.0-2.0-0.8","C1","K1","C1 K1"
21,6770,30,"html-slider-response",11,77082,"0.0-2.0-0.9","F1","K1","F1 K1"
21,3456,28,"html-slider-response",12,80642,"0.0-2.0-0.10","B1","F1","B1 F1"
21,4578,55,"html-slider-response",13,85323,"0.0-2.0-0.11","F1","H1","F1 H1"
21,17169,74,"html-slider-response",14,102591,"0.0-2.0-0.12","C1","D1","C1 D1"
21,4617,43,"html-slider-response",15,107313,"0.0-2.0-0.13","E1","I1","E1 I1"
21,9843,74,"html-slider-response",16,117260,"0.0-2.0-0.14","H1","I1","H1 I1"
21,4160,46,"html-slider-response",17,121529,"0.0-2.0-0.15","E1","L1","E1 L1"
21,6352,38,"html-slider-response",18,127985,"0.0-2.0-0.16","G1","J1","G1 J1"
21,4010,12,"html-slider-response",19,132095,"0.0-2.0-0.17","C1","H1","C1 H1"
21,3832,10,"html-slider-response",20,136026,"0.0-2.0-0.18","B1","J1","B1 J1"
21,3892,56,"html-slider-response",21,140024,"0.0-2.0-0.19","G1","H1","G1 H1"
21,5220,21,"html-slider-response",22,145344,"0.0-2.0-0.20","D1","F1","D1 F1"
21,3194,60,"html-slider-response",23,148642,"0.0-2.0-0.21","F1","L1","F1 L1"
22,9193,29,"html-slider-response",2,22380,"0.0-2.0-0.0","F1","H1","F1 H1"
22,2393,56,"html-slider-response",3,24879,"0.0-2.0-0.1","C1","L1","C1 L1"
22,2520,36,"html-slider-response",4,27558,"0.0-2.0-0.2","D1","E1","D1 E1"
22,2361,19,"html-slider-response",5,30023,"0.0-2.0-0.3","B1","F1","B1 F1"
22,2445,60,"html-slider-response",6,32572,"0.0-2.0-0.4","E1","L1","E1 L1"
22,2801,7,"html-slider-response",7,35478,"0.0-2.0-0.5","D1","F1","D1 F1"
22,2244,68,"html-slider-response",8,37829,"0.0-2.0-0.6","B1","J1","B1 J1"
22,1979,67,"html-slider-response",9,39909,"0.0-2.0-0.7","H1","I1","H1 I1"
22,2025,9,"html-slider-response",10,42037,"0.0-2.0-0.8","C1","J1","C1 J1"
22,2353,77,"html-slider-response",11,44493,"0.0-2.0-0.9","F1","L1","F1 L1"
22,2439,55,"html-slider-response",12,47092,"0.0-2.0-0.10","C1","K1","C1 K1"
22,2332,20,"html-slider-response",13,49527,"0.0-2.0-0.11","G1","J1","G1 J1"
22,1996,59,"html-slider-response",14,51628,"0.0-2.0-0.12","B1","C1","B1 C1"
22,1832,29,"html-slider-response",15,53561,"0.0-2.0-0.13","E1","I1","E1 I1"
22,1962,15,"html-slider-response",16,55628,"0.0-2.0-0.14","F1","K1","F1 K1"
22,2597,28,"html-slider-response",17,58326,"0.0-2.0-0.15","B1","G1","B1 G1"
22,2546,31,"html-slider-response",18,60975,"0.0-2.0-0.16","D1","J1","D1 J1"
22,2305,54,"html-slider-response",19,63382,"0.0-2.0-0.17","C1","E1","C1 E1"
22,1871,55,"html-slider-response",20,65357,"0.0-2.0-0.18","C1","H1","C1 H1"
22,2031,23,"html-slider-response",21,67492,"0.0-2.0-0.19","A1","F1","A1 F1"
22,2297,30,"html-slider-response",22,69891,"0.0-2.0-0.20","C1","D1","C1 D1"
22,1809,27,"html-slider-response",23,71803,"0.0-2.0-0.21","G1","H1","G1 H1"
23,6429,24,"html-slider-response",2,46201,"0.0-2.0-0.0","D1","E1","D1 E1"
23,2896,38,"html-slider-response",3,49200,"0.0-2.0-0.1","D1","F1","D1 F1"
23,2167,66,"html-slider-response",4,51469,"0.0-2.0-0.2","F1","L1","F1 L1"
23,2242,44,"html-slider-response",5,53813,"0.0-2.0-0.3","B1","F1","B1 F1"
23,3790,75,"html-slider-response",6,57705,"0.0-2.0-0.4","B1","C1","B1 C1"
23,2605,37,"html-slider-response",7,60413,"0.0-2.0-0.5","D1","J1","D1 J1"
23,2001,65,"html-slider-response",8,62516,"0.0-2.0-0.6","F1","H1","F1 H1"
23,6793,63,"html-slider-response",9,69411,"0.0-2.0-0.7","G1","J1","G1 J1"
23,2050,41,"html-slider-response",10,71565,"0.0-2.0-0.8","A1","F1","A1 F1"
23,2217,37,"html-slider-response",11,73884,"0.0-2.0-0.9","B1","J1","B1 J1"
23,2838,72,"html-slider-response",12,76825,"0.0-2.0-0.10","G1","H1","G1 H1"
23,2594,65,"html-slider-response",13,79520,"0.0-2.0-0.11","C1","L1","C1 L1"
23,2508,40,"html-slider-response",14,82130,"0.0-2.0-0.12","C1","K1","C1 K1"
23,2440,39,"html-slider-response",15,84672,"0.0-2.0-0.13","E1","I1","E1 I1"
23,2382,66,"html-slider-response",16,87156,"0.0-2.0-0.14","C1","J1","C1 J1"
23,2229,34,"html-slider-response",17,89487,"0.0-2.0-0.15","F1","K1","F1 K1"
23,2084,13,"html-slider-response",18,91674,"0.0-2.0-0.16","C1","E1","C1 E1"
23,2945,44,"html-slider-response",19,94722,"0.0-2.0-0.17","C1","D1","C1 D1"
23,2369,84,"html-slider-response",20,97191,"0.0-2.0-0.18","H1","I1","H1 I1"
23,1987,67,"html-slider-response",21,99281,"0.0-2.0-0.19","E1","L1","E1 L1"
23,1922,40,"html-slider-response",22,101305,"0.0-2.0-0.20","B1","G1","B1 G1"
23,3400,36,"html-slider-response",23,104807,"0.0-2.0-0.21","C1","H1","C1 H1"
24,3180,32,"html-slider-response",2,6151,"0.0-2.0-0.0","C1","K1","C1 K1"
24,2119,30,"html-slider-response",3,8375,"0.0-2.0-0.1","D1","F1","D1 F1"
24,3192,0,"html-slider-response",4,11670,"0.0-2.0-0.2","B1","J1","B1 J1"
24,2984,65,"html-slider-response",5,14760,"0.0-2.0-0.3","B1","G1","B1 G1"
24,2123,62,"html-slider-response",6,16987,"0.0-2.0-0.4","G1","H1","G1 H1"
24,2318,35,"html-slider-response",7,19407,"0.0-2.0-0.5","D1","J1","D1 J1"
24,1682,27,"html-slider-response",8,21195,"0.0-2.0-0.6","C1","D1","C1 D1"
24,1990,28,"html-slider-response",9,23287,"0.0-2.0-0.7","F1","H1","F1 H1"
24,1707,29,"html-slider-response",10,25097,"0.0-2.0-0.8","B1","F1","B1 F1"
24,1563,73,"html-slider-response",11,26761,"0.0-2.0-0.9","C1","J1","C1 J1"
24,1864,30,"html-slider-response",12,28727,"0.0-2.0-0.10","F1","L1","F1 L1"
24,1906,23,"html-slider-response",13,30735,"0.0-2.0-0.11","C1","E1","C1 E1"
24,1930,68,"html-slider-response",14,32771,"0.0-2.0-0.12","C1","L1","C1 L1"
24,1886,17,"html-slider-response",15,34759,"0.0-2.0-0.13","B1","C1","B1 C1"
24,1606,26,"html-slider-response",16,36469,"0.0-2.0-0.14","C1","H1","C1 H1"
24,1138,21,"html-slider-response",17,37711,"0.0-2.0-0.15","E1","I1","E1 I1"
24,1381,34,"html-slider-response",18,39194,"0.0-2.0-0.16","A1","F1","A1 F1"
24,1684,23,"html-slider-response",19,40982,"0.0-2.0-0.17","F1","K1","F1 K1"
24,1653,13,"html-slider-response",20,42737,"0.0-2.0-0.18","E1","L1","E1 L1"
24,1483,26,"html-slider-response",21,44324,"0.0-2.0-0.19","D1","E1","D1 E1"
24,1716,69,"html-slider-response",22,46142,"0.0-2.0-0.20","G1","J1","G1 J1"
24,1552,29,"html-slider-response",23,47797,"0.0-2.0-0.21","H1","I1","H1 I1"
25,4577,38,"html-slider-response",2,16667,"0.0-2.0-0.0","G1","J1","G1 J1"
25,4098,41,"html-slider-response",3,20866,"0.0-2.0-0.1","D1","F1","D1 F1"
25,4479,62,"html-slider-response",4,25447,"0.0-2.0-0.2","G1","H1","G1 H1"
25,3502,18,"html-slider-response",5,29052,"0.0-2.0-0.3","D1","J1","D1 J1"
25,2867,53,"html-slider-response",6,32020,"0.0-2.0-0.4","E1","L1","E1 L1"
25,3975,60,"html-slider-response",7,36097,"0.0-2.0-0.5","F1","L1","F1 L1"
25,4199,69,"html-slider-response",8,40398,"0.0-2.0-0.6","B1","C1","B1 C1"
25,5046,89,"html-slider-response",9,45545,"0.0-2.0-0.7","C1","J1","C1 J1"
25,3190,46,"html-slider-response",10,48837,"0.0-2.0-0.8","C1","K1","C1 K1"
25,3300,20,"html-slider-response",11,52240,"0.0-2.0-0.9","A1","F1","A1 F1"
25,4673,32,"html-slider-response",12,57013,"0.0-2.0-0.10","F1","K1","F1 K1"
25,4619,41,"html-slider-response",13,61733,"0.0-2.0-0.11","F1","H1","F1 H1"
25,3014,30,"html-slider-response",14,64849,"0.0-2.0-0.12","B1","G1","B1 G1"
25,5486,62,"html-slider-response",15,70437,"0.0-2.0-0.13","B1","F1","B1 F1"
25,4154,41,"html-slider-response",16,74693,"0.0-2.0-0.14","E1","I1","E1 I1"
25,3921,26,"html-slider-response",17,78715,"0.0-2.0-0.15","C1","E1","C1 E1"
25,4224,83,"html-slider-response",18,83039,"0.0-2.0-0.16","H1","I1","H1 I1"
25,3137,33,"html-slider-response",19,86279,"0.0-2.0-0.17","C1","H1","C1 H1"
25,2899,34,"html-slider-response",20,89279,"0.0-2.0-0.18","D1","E1","D1 E1"
25,4067,26,"html-slider-response",21,93450,"0.0-2.0-0.19","C1","L1","C1 L1"
25,3324,32,"html-slider-response",22,96875,"0.0-2.0-0.20","B1","J1","B1 J1"
25,2727,58,"html-slider-response",23,99704,"0.0-2.0-0.21","C1","D1","C1 D1"
26,5786,32,"html-slider-response",2,37066,"0.0-2.0-0.0","H1","I1","H1 I1"
26,37969,38,"html-slider-response",3,75141,"0.0-2.0-0.1","E1","L1","E1 L1"
26,24256,41,"html-slider-response",4,99499,"0.0-2.0-0.2","D1","J1","D1 J1"
26,3502,33,"html-slider-response",5,103105,"0.0-2.0-0.3","F1","H1","F1 H1"
26,3225,29,"html-slider-response",6,106435,"0.0-2.0-0.4","B1","G1","B1 G1"
26,4202,37,"html-slider-response",7,110754,"0.0-2.0-0.5","B1","C1","B1 C1"
26,4689,63,"html-slider-response",8,115548,"0.0-2.0-0.6","C1","J1","C1 J1"
26,2287,27,"html-slider-response",9,117938,"0.0-2.0-0.7","C1","E1","C1 E1"
26,4312,58,"html-slider-response",10,122354,"0.0-2.0-0.8","G1","H1","G1 H1"
26,2481,33,"html-slider-response",11,124938,"0.0-2.0-0.9","D1","E1","D1 E1"
26,2480,31,"html-slider-response",12,127522,"0.0-2.0-0.10","D1","F1","D1 F1"
26,2470,30,"html-slider-response",13,130100,"0.0-2.0-0.11","A1","F1","A1 F1"
26,2514,38,"html-slider-response",14,132718,"0.0-2.0-0.12","B1","F1","B1 F1"
26,2188,31,"html-slider-response",15,135011,"0.0-2.0-0.13","B1","J1","B1 J1"
26,3019,41,"html-slider-response",16,138133,"0.0-2.0-0.14","C1","D1","C1 D1"
26,3471,48,"html-slider-response",17,141706,"0.0-2.0-0.15","C1","H1","C1 H1"
26,2428,31,"html-slider-response",18,144238,"0.0-2.0-0.16","F1","K1","F1 K1"
26,40133,69,"html-slider-response",19,184501,"0.0-2.0-0.17","C1","K1","C1 K1"
26,4360,62,"html-slider-response",20,188966,"0.0-2.0-0.18","F1","L1","F1 L1"
26,3359,35,"html-slider-response",21,192431,"0.0-2.0-0.19","G1","J1","G1 J1"
26,2967,39,"html-slider-response",22,195504,"0.0-2.0-0.20","E1","I1","E1 I1"
26,2149,79,"html-slider-response",23,197758,"0.0-2.0-0.21","C1","L1","C1 L1"
27,3940,64,"html-slider-response",2,15100,"0.0-2.0-0.0","G1","J1","G1 J1"
27,2390,25,"html-slider-response",3,17607,"0.0-2.0-0.1","B1","F1","B1 F1"
27,3473,33,"html-slider-response",4,21191,"0.0-2.0-0.2","B1","G1","B1 G1"
27,2437,55,"html-slider-response",5,23738,"0.0-2.0-0.3","D1","E1","D1 E1"
27,2673,87,"html-slider-response",6,26513,"0.0-2.0-0.4","F1","L1","F1 L1"
27,2293,38,"html-slider-response",7,28907,"0.0-2.0-0.5","D1","J1","D1 J1"
27,2357,38,"html-slider-response",8,31367,"0.0-2.0-0.6","C1","L1","C1 L1"
27,1896,41,"html-slider-response",9,33365,"0.0-2.0-0.7","D1","F1","D1 F1"
27,2303,93,"html-slider-response",10,35771,"0.0-2.0-0.8","H1","I1","H1 I1"
27,2198,37,"html-slider-response",11,38070,"0.0-2.0-0.9","C1","E1","C1 E1"
27,1931,40,"html-slider-response",12,40105,"0.0-2.0-0.10","C1","H1","C1 H1"
27,2330,77,"html-slider-response",13,42537,"0.0-2.0-0.11","G1","H1","G1 H1"
27,2228,83,"html-slider-response",14,44867,"0.0-2.0-0.12","C1","D1","C1 D1"
27,4076,53,"html-slider-response",15,49045,"0.0-2.0-0.13","B1","J1","B1 J1"
27,2236,35,"html-slider-response",16,51383,"0.0-2.0-0.14","B1","C1","B1 C1"
27,2351,74,"html-slider-response",17,53837,"0.0-2.0-0.15","E1","L1","E1 L1"
27,2304,64,"html-slider-response",18,56242,"0.0-2.0-0.16","C1","K1","C1 K1"
27,3404,76,"html-slider-response",19,59750,"0.0-2.0-0.17","A1","F1","A1 F1"
27,2382,42,"html-slider-response",20,62235,"0.0-2.0-0.18","E1","I1","E1 I1"
27,2079,83,"html-slider-response",21,64417,"0.0-2.0-0.19","F1","K1","F1 K1"
27,1832,45,"html-slider-response",22,66351,"0.0-2.0-0.20","F1","H1","F1 H1"
27,2621,56,"html-slider-response",23,69075,"0.0-2.0-0.21","C1","J1","C1 J1"
28,4937,24,"html-slider-response",2,285848,"0.0-2.0-0.0","E1","I1","E1 I1"
28,5914,71,"html-slider-response",3,291866,"0.0-2.0-0.1","H1","I1","H1 I1"
28,3928,15,"html-slider-response",4,295897,"0.0-2.0-0.2","C1","D1","C1 D1"
28,4527,21,"html-slider-response",5,300525,"0.0-2.0-0.3","C1","E1","C1 E1"
28,2985,40,"html-slider-response",6,303614,"0.0-2.0-0.4","C1","H1","C1 H1"
28,3393,19,"html-slider-response",7,307109,"0.0-2.0-0.5","D1","J1","D1 J1"
28,6218,44,"html-slider-response",8,313430,"0.0-2.0-0.6","B1","F1","B1 F1"
28,2578,21,"html-slider-response",9,316113,"0.0-2.0-0.7","D1","E1","D1 E1"
28,2843,45,"html-slider-response",10,319058,"0.0-2.0-0.8","C1","K1","C1 K1"
28,5568,76,"html-slider-response",11,324725,"0.0-2.0-0.9","F1","L1","F1 L1"
28,3770,46,"html-slider-response",12,328596,"0.0-2.0-0.10","F1","H1","F1 H1"
28,5131,52,"html-slider-response",13,333831,"0.0-2.0-0.11","G1","H1","G1 H1"
28,2866,77,"html-slider-response",14,336800,"0.0-2.0-0.12","G1","J1","G1 J1"
28,3433,69,"html-slider-response",15,340336,"0.0-2.0-0.13","F1","K1","F1 K1"
28,2523,26,"html-slider-response",16,342962,"0.0-2.0-0.14","B1","C1","B1 C1"
28,2603,24,"html-slider-response",17,345667,"0.0-2.0-0.15","B1","G1","B1 G1"
28,3178,92,"html-slider-response",18,348947,"0.0-2.0-0.16","E1","L1","E1 L1"
28,2659,40,"html-slider-response",19,351709,"0.0-2.0-0.17","D1","F1","D1 F1"
28,2547,30,"html-slider-response",20,354359,"0.0-2.0-0.18","C1","L1","C1 L1"
28,3585,59,"html-slider-response",21,358046,"0.0-2.0-0.19","A1","F1","A1 F1"
28,3657,47,"html-slider-response",22,361805,"0.0-2.0-0.20","B1","J1","B1 J1"
28,3241,82,"html-slider-response",23,365149,"0.0-2.0-0.21","C1","J1","C1 J1"
29,8829,24,"html-slider-response",2,36903,"0.0-2.0-0.0","E1","I1","E1 I1"
29,7267,20,"html-slider-response",3,44274,"0.0-2.0-0.1","F1","H1","F1 H1"
29,6737,39,"html-slider-response",4,51114,"0.0-2.0-0.2","C1","J1","C1 J1"
29,8013,39,"html-slider-response",5,59229,"0.0-2.0-0.3","A1","F1","A1 F1"
29,6399,55,"html-slider-response",6,65732,"0.0-2.0-0.4","D1","E1","D1 E1"
29,5682,64,"html-slider-response",7,71520,"0.0-2.0-0.5","D1","J1","D1 J1"
29,7559,35,"html-slider-response",8,79182,"0.0-2.0-0.6","C1","E1","C1 E1"
29,7697,67,"html-slider-response",9,86983,"0.0-2.0-0.7","H1","I1","H1 I1"
29,7395,59,"html-slider-response",10,94483,"0.0-2.0-0.8","D1","F1","D1 F1"
29,5465,65,"html-slider-response",11,100051,"0.0-2.0-0.9","C1","L1","C1 L1"
29,4625,25,"html-slider-response",12,104782,"0.0-2.0-0.10","F1","K1","F1 K1"
29,4935,33,"html-slider-response",13,109820,"0.0-2.0-0.11","E1","L1","E1 L1"
29,5880,59,"html-slider-response",14,115802,"0.0-2.0-0.12","G1","J1","G1 J1"
29,28894,61,"html-slider-response",15,144801,"0.0-2.0-0.13","C1","K1","C1 K1"
29,3523,32,"html-slider-response",16,148427,"0.0-2.0-0.14","B1","F1","B1 F1"
29,4086,38,"html-slider-response",17,152624,"0.0-2.0-0.15","C1","H1","C1 H1"
29,2913,66,"html-slider-response",18,155641,"0.0-2.0-0.16","C1","D1","C1 D1"
29,4752,66,"html-slider-response",19,160497,"0.0-2.0-0.17","F1","L1","F1 L1"
29,3947,66,"html-slider-response",20,164547,"0.0-2.0-0.18","B1","G1","B1 G1"
29,3890,40,"html-slider-response",21,168540,"0.0-2.0-0.19","B1","J1","B1 J1"
29,3152,40,"html-slider-response",22,171797,"0.0-2.0-0.20","G1","H1","G1 H1"
29,3906,41,"html-slider-response",23,175807,"0.0-2.0-0.21","B1","C1","B1 C1"
30,11606,55,"html-slider-response",2,23866,"0.0-2.0-0.0","G1","H1","G1 H1"
30,2058,72,"html-slider-response",3,26027,"0.0-2.0-0.1","E1","L1","E1 L1"
30,2081,73,"html-slider-response",4,28210,"0.0-2.0-0.2","C1","D1","C1 D1"
30,6130,62,"html-slider-response",5,34441,"0.0-2.0-0.3","G1","J1","G1 J1"
30,2781,70,"html-slider-response",6,37322,"0.0-2.0-0.4","C1","E1","C1 E1"
30,4602,66,"html-slider-response",7,42027,"0.0-2.0-0.5","B1","G1","B1 G1"
30,5458,29,"html-slider-response",8,47585,"0.0-2.0-0.6","H1","I1","H1 I1"
30,4525,35,"html-slider-response",9,52211,"0.0-2.0-0.7","D1","F1","D1 F1"
30,2531,36,"html-slider-response",10,54843,"0.0-2.0-0.8","D1","E1","D1 E1"
30,2610,58,"html-slider-response",11,57555,"0.0-2.0-0.9","F1","H1","F1 H1"
30,2033,54,"html-slider-response",12,59689,"0.0-2.0-0.10","E1","I1","E1 I1"
30,4731,58,"html-slider-response",13,64523,"0.0-2.0-0.11","C1","L1","C1 L1"
30,2985,53,"html-slider-response",14,67610,"0.0-2.0-0.12","B1","J1","B1 J1"
30,2940,37,"html-slider-response",15,70649,"0.0-2.0-0.13","A1","F1","A1 F1"
30,1946,39,"html-slider-response",16,72699,"0.0-2.0-0.14","B1","F1","B1 F1"
30,3491,61,"html-slider-response",17,76291,"0.0-2.0-0.15","F1","L1","F1 L1"
30,2859,59,"html-slider-response",18,79250,"0.0-2.0-0.16","C1","J1","C1 J1"
30,3642,49,"html-slider-response",19,82994,"0.0-2.0-0.17","C1","H1","C1 H1"
30,2411,40,"html-slider-response",20,85506,"0.0-2.0-0.18","F1","K1","F1 K1"
30,2363,41,"html-slider-response",21,87970,"0.0-2.0-0.19","D1","J1","D1 J1"
30,2667,61,"html-slider-response",22,90739,"0.0-2.0-0.20","C1","K1","C1 K1"
30,2027,38,"html-slider-response",23,92866,"0.0-2.0-0.21","B1","C1","B1 C1"
31,3018,32,"html-slider-response",2,15683,"0.0-2.0-0.0","B1","G1","B1 G1"
31,2425,58,"html-slider-response",3,18212,"0.0-2.0-0.1","F1","K1","F1 K1"
31,2986,41,"html-slider-response",4,21299,"0.0-2.0-0.2","C1","L1","C1 L1"
31,2275,21,"html-slider-response",5,23675,"0.0-2.0-0.3","E1","I1","E1 I1"
31,2500,37,"html-slider-response",6,26275,"0.0-2.0-0.4","B1","C1","B1 C1"
31,2211,66,"html-slider-response",7,28588,"0.0-2.0-0.5","F1","L1","F1 L1"
31,2388,16,"html-slider-response",8,31083,"0.0-2.0-0.6","D1","F1","D1 F1"
31,5227,19,"html-slider-response",9,36412,"0.0-2.0-0.7","D1","J1","D1 J1"
31,2748,10,"html-slider-response",10,39260,"0.0-2.0-0.8","B1","J1","B1 J1"
31,2290,67,"html-slider-response",11,41652,"0.0-2.0-0.9","C1","J1","C1 J1"
31,2371,39,"html-slider-response",12,44123,"0.0-2.0-0.10","C1","E1","C1 E1"
31,2531,46,"html-slider-response",13,46755,"0.0-2.0-0.11","E1","L1","E1 L1"
31,2444,56,"html-slider-response",14,49299,"0.0-2.0-0.12","H1","I1","H1 I1"
31,2492,10,"html-slider-response",15,51891,"0.0-2.0-0.13","D1","E1","D1 E1"
31,3090,42,"html-slider-response",16,55084,"0.0-2.0-0.14","G1","J1","G1 J1"
31,2699,45,"html-slider-response",17,57883,"0.0-2.0-0.15","C1","D1","C1 D1"
31,6260,41,"html-slider-response",18,64244,"0.0-2.0-0.16","F1","H1","F1 H1"
31,4691,59,"html-slider-response",19,69036,"0.0-2.0-0.17","C1","K1","C1 K1"
31,2300,55,"html-slider-response",20,71436,"0.0-2.0-0.18","G1","H1","G1 H1"
31,2204,27,"html-slider-response",21,73740,"0.0-2.0-0.19","B1","F1","B1 F1"
31,2116,34,"html-slider-response",22,75956,"0.0-2.0-0.20","C1","H1","C1 H1"
31,6259,10,"html-slider-response",23,82316,"0.0-2.0-0.21","A1","F1","A1 F1"
32,5288,16,"html-slider-response",2,9907,"0.0-2.0-0.0","B1","J1","B1 J1"
32,2739,24,"html-slider-response",3,12778,"0.0-2.0-0.1","E1","L1","E1 L1"
32,2635,28,"html-slider-response",4,15543,"0.0-2.0-0.2","G1","H1","G1 H1"
32,6322,46,"html-slider-response",5,21991,"0.0-2.0-0.3","C1","H1","C1 H1"
32,2762,34,"html-slider-response",6,24881,"0.0-2.0-0.4","C1","D1","C1 D1"
32,2566,17,"html-slider-response",7,27569,"0.0-2.0-0.5","E1","I1","E1 I1"
32,2295,17,"html-slider-response",8,30000,"0.0-2.0-0.6","F1","K1","F1 K1"
32,3642,16,"html-slider-response",9,33769,"0.0-2.0-0.7","D1","J1","D1 J1"
32,2113,61,"html-slider-response",10,36009,"0.0-2.0-0.8","A1","F1","A1 F1"
32,2080,19,"html-slider-response",11,38209,"0.0-2.0-0.9","B1","G1","B1 G1"
32,2958,58,"html-slider-response",12,41288,"0.0-2.0-0.10","C1","K1","C1 K1"
32,3215,13,"html-slider-response",13,44624,"0.0-2.0-0.11","F1","H1","F1 H1"
32,2521,15,"html-slider-response",14,47257,"0.0-2.0-0.12","C1","L1","C1 L1"
32,2343,14,"html-slider-response",15,49720,"0.0-2.0-0.13","C1","E1","C1 E1"
32,2658,53,"html-slider-response",16,52504,"0.0-2.0-0.14","C1","J1","C1 J1"
32,1716,8,"html-slider-response",17,54353,"0.0-2.0-0.15","B1","C1","B1 C1"
32,2064,10,"html-slider-response",18,56537,"0.0-2.0-0.16","D1","F1","D1 F1"
32,1554,15,"html-slider-response",19,58208,"0.0-2.0-0.17","D1","E1","D1 E1"
32,1447,19,"html-slider-response",20,59760,"0.0-2.0-0.18","B1","F1","B1 F1"
32,2697,58,"html-slider-response",21,62566,"0.0-2.0-0.19","H1","I1","H1 I1"
32,1927,30,"html-slider-response",22,64629,"0.0-2.0-0.20","G1","J1","G1 J1"
32,2267,57,"html-slider-response",23,67013,"0.0-2.0-0.21","F1","L1","F1 L1"
33,5380,0,"html-slider-response",2,27614,"0.0-2.0-0.0","G1","H1","G1 H1"
33,9882,0,"html-slider-response",3,37599,"0.0-2.0-0.1","D1","J1","D1 J1"
33,2546,0,"html-slider-response",4,40247,"0.0-2.0-0.2","B1","G1","B1 G1"
33,9612,0,"html-slider-response",5,49961,"0.0-2.0-0.3","C1","E1","C1 E1"
33,3057,77,"html-slider-response",6,53121,"0.0-2.0-0.4","F1","L1","F1 L1"
33,3547,82,"html-slider-response",7,56769,"0.0-2.0-0.5","H1","I1","H1 I1"
33,7443,62,"html-slider-response",8,64313,"0.0-2.0-0.6","E1","I1","E1 I1"
33,3506,79,"html-slider-response",9,67922,"0.0-2.0-0.7","D1","F1","D1 F1"
33,2883,0,"html-slider-response",10,70907,"0.0-2.0-0.8","C1","K1","C1 K1"
33,2802,33,"html-slider-response",11,73811,"0.0-2.0-0.9","A1","F1","A1 F1"
33,4523,0,"html-slider-response",12,78435,"0.0-2.0-0.10","B1","C1","B1 C1"
33,2658,70,"html-slider-response",13,81195,"0.0-2.0-0.11","B1","J1","B1 J1"
33,3884,0,"html-slider-response",14,85180,"0.0-2.0-0.12","F1","K1","F1 K1"
33,4098,10,"html-slider-response",15,89380,"0.0-2.0-0.13","G1","J1","G1 J1"
33,3049,0,"html-slider-response",16,92533,"0.0-2.0-0.14","D1","E1","D1 E1"
33,3804,9,"html-slider-response",17,96437,"0.0-2.0-0.15","C1","J1","C1 J1"
33,9300,10,"html-slider-response",18,105838,"0.0-2.0-0.16","B1","F1","B1 F1"
33,3554,20,"html-slider-response",19,109494,"0.0-2.0-0.17","E1","L1","E1 L1"
33,3130,0,"html-slider-response",20,112727,"0.0-2.0-0.18","C1","D1","C1 D1"
33,1986,0,"html-slider-response",21,114815,"0.0-2.0-0.19","C1","L1","C1 L1"
33,3531,77,"html-slider-response",22,118447,"0.0-2.0-0.20","F1","H1","F1 H1"
33,4771,0,"html-slider-response",23,123319,"0.0-2.0-0.21","C1","H1","C1 H1"
34,9194,36,"html-slider-response",2,24048,"0.0-2.0-0.0","C1","K1","C1 K1"
34,10357,28,"html-slider-response",3,34509,"0.0-2.0-0.1","G1","H1","G1 H1"
34,5358,37,"html-slider-response",4,39970,"0.0-2.0-0.2","G1","J1","G1 J1"
34,4383,31,"html-slider-response",5,44452,"0.0-2.0-0.3","B1","C1","B1 C1"
34,6935,60,"html-slider-response",6,51491,"0.0-2.0-0.4","B1","J1","B1 J1"
34,7590,55,"html-slider-response",7,59182,"0.0-2.0-0.5","H1","I1","H1 I1"
34,7088,57,"html-slider-response",8,66372,"0.0-2.0-0.6","F1","H1","F1 H1"
34,3764,79,"html-slider-response",9,70237,"0.0-2.0-0.7","E1","L1","E1 L1"
34,4831,74,"html-slider-response",10,75172,"0.0-2.0-0.8","A1","F1","A1 F1"
34,4122,35,"html-slider-response",11,79397,"0.0-2.0-0.9","C1","E1","C1 E1"
34,4330,29,"html-slider-response",12,83829,"0.0-2.0-0.10","D1","E1","D1 E1"
34,5100,70,"html-slider-response",13,89032,"0.0-2.0-0.11","C1","J1","C1 J1"
34,3530,75,"html-slider-response",14,92663,"0.0-2.0-0.12","F1","L1","F1 L1"
34,4657,34,"html-slider-response",15,97425,"0.0-2.0-0.13","F1","K1","F1 K1"
34,4606,39,"html-slider-response",16,102134,"0.0-2.0-0.14","B1","F1","B1 F1"
34,4169,34,"html-slider-response",17,106405,"0.0-2.0-0.15","E1","I1","E1 I1"
34,6940,38,"html-slider-response",18,113447,"0.0-2.0-0.16","C1","H1","C1 H1"
34,5995,75,"html-slider-response",19,119544,"0.0-2.0-0.17","B1","G1","B1 G1"
34,4267,38,"html-slider-response",20,123911,"0.0-2.0-0.18","C1","L1","C1 L1"
34,2915,81,"html-slider-response",21,126926,"0.0-2.0-0.19","C1","D1","C1 D1"
34,3958,37,"html-slider-response",22,130984,"0.0-2.0-0.20","D1","F1","D1 F1"
34,5261,43,"html-slider-response",23,136348,"0.0-2.0-0.21","D1","J1","D1 J1"
35,8308,22,"html-slider-response",2,154849,"0.0-2.0-0.0","G1","J1","G1 J1"
35,2474,40,"html-slider-response",3,157425,"0.0-2.0-0.1","C1","E1","C1 E1"
35,2807,78,"html-slider-response",4,160333,"0.0-2.0-0.2","C1","D1","C1 D1"
35,2944,23,"html-slider-response",5,163379,"0.0-2.0-0.3","D1","F1","D1 F1"
35,2390,58,"html-slider-response",6,165871,"0.0-2.0-0.4","H1","I1","H1 I1"
35,2624,43,"html-slider-response",7,168597,"0.0-2.0-0.5","C1","K1","C1 K1"
35,3133,22,"html-slider-response",8,171831,"0.0-2.0-0.6","F1","K1","F1 K1"
35,3072,69,"html-slider-response",9,175005,"0.0-2.0-0.7","E1","L1","E1 L1"
35,2596,43,"html-slider-response",10,177703,"0.0-2.0-0.8","C1","H1","C1 H1"
35,3683,30,"html-slider-response",11,181487,"0.0-2.0-0.9","D1","J1","D1 J1"
35,3192,54,"html-slider-response",12,184781,"0.0-2.0-0.10","B1","G1","B1 G1"
35,2849,15,"html-slider-response",13,187731,"0.0-2.0-0.11","A1","F1","A1 F1"
35,2643,36,"html-slider-response",14,190475,"0.0-2.0-0.12","C1","J1","C1 J1"
35,2989,23,"html-slider-response",15,193565,"0.0-2.0-0.13","B1","C1","B1 C1"
35,5367,39,"html-slider-response",16,199033,"0.0-2.0-0.14","C1","L1","C1 L1"
35,2963,28,"html-slider-response",17,202097,"0.0-2.0-0.15","B1","J1","B1 J1"
35,2952,57,"html-slider-response",18,205151,"0.0-2.0-0.16","G1","H1","G1 H1"
35,2773,67,"html-slider-response",19,208025,"0.0-2.0-0.17","F1","L1","F1 L1"
35,3100,38,"html-slider-response",20,211227,"0.0-2.0-0.18","F1","H1","F1 H1"
35,2805,22,"html-slider-response",21,214133,"0.0-2.0-0.19","B1","F1","B1 F1"
35,5411,52,"html-slider-response",22,219645,"0.0-2.0-0.20","E1","I1","E1 I1"
35,5619,15,"html-slider-response",23,225365,"0.0-2.0-0.21","D1","E1","D1 E1"
36,6381,44,"html-slider-response",2,311532,"0.0-2.0-0.0","E1","I1","E1 I1"
36,4200,44,"html-slider-response",3,315839,"0.0-2.0-0.1","C1","D1","C1 D1"
36,5793,63,"html-slider-response",4,321738,"0.0-2.0-0.2","H1","I1","H1 I1"
36,3347,56,"html-slider-response",5,325190,"0.0-2.0-0.3","C1","K1","C1 K1"
36,3993,78,"html-slider-response",6,329288,"0.0-2.0-0.4","C1","J1","C1 J1"
36,3605,19,"html-slider-response",7,332997,"0.0-2.0-0.5","B1","F1","B1 F1"
36,3091,54,"html-slider-response",8,336192,"0.0-2.0-0.6","F1","L1","F1 L1"
36,3843,11,"html-slider-response",9,340141,"0.0-2.0-0.7","C1","L1","C1 L1"
36,2986,23,"html-slider-response",10,343230,"0.0-2.0-0.8","F1","H1","F1 H1"
36,3396,57,"html-slider-response",11,346729,"0.0-2.0-0.9","D1","J1","D1 J1"
36,3254,69,"html-slider-response",12,350087,"0.0-2.0-0.10","G1","H1","G1 H1"
36,2930,24,"html-slider-response",13,353122,"0.0-2.0-0.11","E1","L1","E1 L1"
36,3712,11,"html-slider-response",14,356936,"0.0-2.0-0.12","C1","H1","C1 H1"
36,3695,40,"html-slider-response",15,360736,"0.0-2.0-0.13","A1","F1","A1 F1"
36,4157,58,"html-slider-response",16,364998,"0.0-2.0-0.14","B1","G1","B1 G1"
36,2706,63,"html-slider-response",17,367806,"0.0-2.0-0.15","F1","K1","F1 K1"
36,6604,39,"html-slider-response",18,374514,"0.0-2.0-0.16","D1","F1","D1 F1"
36,4141,63,"html-slider-response",19,378760,"0.0-2.0-0.17","B1","C1","B1 C1"
36,5128,25,"html-slider-response",20,383990,"0.0-2.0-0.18","D1","E1","D1 E1"
36,3379,35,"html-slider-response",21,387474,"0.0-2.0-0.19","C1","E1","C1 E1"
36,8178,53,"html-slider-response",22,395754,"0.0-2.0-0.20","B1","J1","B1 J1"
36,2438,57,"html-slider-response",23,398296,"0.0-2.0-0.21","G1","J1","G1 J1"
37,4483,73,"html-slider-response",2,15613,"0.0-2.0-0.0","C1","D1","C1 D1"
37,3202,84,"html-slider-response",3,18917,"0.0-2.0-0.1","H1","I1","H1 I1"
37,4066,67,"html-slider-response",4,23085,"0.0-2.0-0.2","G1","J1","G1 J1"
37,2202,9,"html-slider-response",5,25390,"0.0-2.0-0.3","D1","J1","D1 J1"
37,3019,32,"html-slider-response",6,28510,"0.0-2.0-0.4","B1","F1","B1 F1"
37,2066,12,"html-slider-response",7,30678,"0.0-2.0-0.5","D1","F1","D1 F1"
37,2338,71,"html-slider-response",8,33117,"0.0-2.0-0.6","F1","L1","F1 L1"
37,2522,13,"html-slider-response",9,35741,"0.0-2.0-0.7","B1","G1","B1 G1"
37,1979,19,"html-slider-response",10,37822,"0.0-2.0-0.8","C1","E1","C1 E1"
37,2267,19,"html-slider-response",11,40189,"0.0-2.0-0.9","B1","J1","B1 J1"
37,2995,16,"html-slider-response",12,43286,"0.0-2.0-0.10","B1","C1","B1 C1"
37,3820,62,"html-slider-response",13,47206,"0.0-2.0-0.11","A1","F1","A1 F1"
37,3498,22,"html-slider-response",14,50806,"0.0-2.0-0.12","F1","K1","F1 K1"
37,4225,61,"html-slider-response",15,55134,"0.0-2.0-0.13","D1","E1","D1 E1"
37,2291,13,"html-slider-response",16,57526,"0.0-2.0-0.14","E1","L1","E1 L1"
37,3171,16,"html-slider-response",17,60798,"0.0-2.0-0.15","C1","L1","C1 L1"
37,3147,71,"html-slider-response",18,64046,"0.0-2.0-0.16","G1","H1","G1 H1"
37,1955,24,"html-slider-response",19,66102,"0.0-2.0-0.17","F1","H1","F1 H1"
37,2010,21,"html-slider-response",20,68213,"0.0-2.0-0.18","C1","J1","C1 J1"
37,2444,23,"html-slider-response",21,70758,"0.0-2.0-0.19","E1","I1","E1 I1"
37,2553,18,"html-slider-response",22,73414,"0.0-2.0-0.20","C1","H1","C1 H1"
37,1906,20,"html-slider-response",23,75421,"0.0-2.0-0.21","C1","K1","C1 K1"
38,5605,30,"html-slider-response",2,24045,"0.0-2.0-0.0","B1","J1","B1 J1"
38,3779,64,"html-slider-response",3,27927,"0.0-2.0-0.1","C1","K1","C1 K1"
38,2450,43,"html-slider-response",4,30478,"0.0-2.0-0.2","B1","F1","B1 F1"
38,7001,59,"html-slider-response",5,37581,"0.0-2.0-0.3","C1","H1","C1 H1"
38,4382,76,"html-slider-response",6,42065,"0.0-2.0-0.4","G1","H1","G1 H1"
38,5736,56,"html-slider-response",7,47903,"0.0-2.0-0.5","G1","J1","G1 J1"
38,3074,57,"html-slider-response",8,51079,"0.0-2.0-0.6","C1","J1","C1 J1"
38,3628,25,"html-slider-response",9,54809,"0.0-2.0-0.7","E1","I1","E1 I1"
38,3535,29,"html-slider-response",10,58446,"0.0-2.0-0.8","D1","J1","D1 J1"
38,4068,96,"html-slider-response",11,62616,"0.0-2.0-0.9","H1","I1","H1 I1"
38,3389,2,"html-slider-response",12,66107,"0.0-2.0-0.10","C1","E1","C1 E1"
38,2937,22,"html-slider-response",13,69146,"0.0-2.0-0.11","A1","F1","A1 F1"
38,2186,53,"html-slider-response",14,71433,"0.0-2.0-0.12","F1","K1","F1 K1"
38,3591,39,"html-slider-response",15,75127,"0.0-2.0-0.13","B1","G1","B1 G1"
38,2542,8,"html-slider-response",16,77769,"0.0-2.0-0.14","D1","E1","D1 E1"
38,5044,54,"html-slider-response",17,82914,"0.0-2.0-0.15","C1","D1","C1 D1"
38,2186,32,"html-slider-response",18,85201,"0.0-2.0-0.16","D1","F1","D1 F1"
38,2892,0,"html-slider-response",19,88195,"0.0-2.0-0.17","B1","C1","B1 C1"
38,2580,63,"html-slider-response",20,90875,"0.0-2.0-0.18","F1","L1","F1 L1"
38,2585,20,"html-slider-response",21,93561,"0.0-2.0-0.19","C1","L1","C1 L1"
38,2700,11,"html-slider-response",22,96363,"0.0-2.0-0.20","E1","L1","E1 L1"
38,2689,34,"html-slider-response",23,99154,"0.0-2.0-0.21","F1","H1","F1 H1"
39,4828,24,"html-slider-response",2,15159,"0.0-2.0-0.0","B1","G1","B1 G1"
39,2438,82,"html-slider-response",3,17702,"0.0-2.0-0.1","C1","J1","C1 J1"
39,1302,65,"html-slider-response",4,19107,"0.0-2.0-0.2","G1","H1","G1 H1"
39,1510,18,"html-slider-response",5,20719,"0.0-2.0-0.3","F1","H1","F1 H1"
39,1724,13,"html-slider-response",6,22546,"0.0-2.0-0.4","A1","F1","A1 F1"
39,1318,41,"html-slider-response",7,23967,"0.0-2.0-0.5","E1","L1","E1 L1"
39,1103,67,"html-slider-response",8,25171,"0.0-2.0-0.6","H1","I1","H1 I1"
39,1386,33,"html-slider-response",9,26658,"0.0-2.0-0.7","B1","J1","B1 J1"
39,630,43,"html-slider-response",10,27390,"0.0-2.0-0.8","F1","L1","F1 L1"
39,1165,65,"html-slider-response",11,28658,"0.0-2.0-0.9","C1","E1","C1 E1"
39,1443,82,"html-slider-response",12,30203,"0.0-2.0-0.10","C1","K1","C1 K1"
39,1194,68,"html-slider-response",13,31498,"0.0-2.0-0.11","B1","F1","B1 F1"
39,2321,55,"html-slider-response",14,33921,"0.0-2.0-0.12","D1","J1","D1 J1"
39,1661,38,"html-slider-response",15,35687,"0.0-2.0-0.13","B1","C1","B1 C1"
39,1960,69,"html-slider-response",16,37749,"0.0-2.0-0.14","C1","D1","C1 D1"
39,1695,18,"html-slider-response",17,39546,"0.0-2.0-0.15","D1","E1","D1 E1"
39,2132,73,"html-slider-response",18,41782,"0.0-2.0-0.16","G1","J1","G1 J1"
39,1460,63,"html-slider-response",19,43342,"0.0-2.0-0.17","C1","L1","C1 L1"
39,1321,33,"html-slider-response",20,44767,"0.0-2.0-0.18","C1","H1","C1 H1"
39,2569,16,"html-slider-response",21,47436,"0.0-2.0-0.19","E1","I1","E1 I1"
39,1008,23,"html-slider-response",22,48546,"0.0-2.0-0.20","D1","F1","D1 F1"
39,1165,32,"html-slider-response",23,49813,"0.0-2.0-0.21","F1","K1","F1 K1"
40,2921,73,"html-slider-response",2,11590,"0.0-2.0-0.0","E1","I1","E1 I1"
40,2082,82,"html-slider-response",3,13775,"0.0-2.0-0.1","F1","L1","F1 L1"
40,2548,20,"html-slider-response",4,16423,"0.0-2.0-0.2","B1","G1","B1 G1"
40,2372,6,"html-slider-response",5,18895,"0.0-2.0-0.3","B1","C1","B1 C1"
40,2587,36,"html-slider-response",6,21583,"0.0-2.0-0.4","G1","J1","G1 J1"
40,2339,45,"html-slider-response",7,24024,"0.0-2.0-0.5","C1","H1","C1 H1"
40,2362,13,"html-slider-response",8,26488,"0.0-2.0-0.6","D1","J1","D1 J1"
40,2403,13,"html-slider-response",9,28992,"0.0-2.0-0.7","D1","F1","D1 F1"
40,2819,32,"html-slider-response",10,31913,"0.0-2.0-0.8","C1","J1","C1 J1"
40,2676,0,"html-slider-response",11,34689,"0.0-2.0-0.9","B1","J1","B1 J1"
40,2554,59,"html-slider-response",12,37346,"0.0-2.0-0.10","E1","L1","E1 L1"
40,2587,4,"html-slider-response",13,40034,"0.0-2.0-0.11","C1","L1","C1 L1"
40,1723,67,"html-slider-response",14,41858,"0.0-2.0-0.12","G1","H1","G1 H1"
40,2418,55,"html-slider-response",15,44378,"0.0-2.0-0.13","F1","H1","F1 H1"
40,2387,31,"html-slider-response",16,46867,"0.0-2.0-0.14","D1","E1","D1 E1"
40,2147,58,"html-slider-response",17,49115,"0.0-2.0-0.15","C1","E1","C1 E1"
40,2459,26,"html-slider-response",18,51675,"0.0-2.0-0.16","B1","F1","B1 F1"
40,2075,81,"html-slider-response",19,53852,"0.0-2.0-0.17","F1","K1","F1 K1"
40,1963,18,"html-slider-response",20,55916,"0.0-2.0-0.18","A1","F1","A1 F1"
40,2899,58,"html-slider-response",21,58917,"0.0-2.0-0.19","C1","K1","C1 K1"
40,2557,95,"html-slider-response",22,61574,"0.0-2.0-0.20","H1","I1","H1 I1"
40,2018,83,"html-slider-response",23,63695,"0.0-2.0-0.21","C1","D1","C1 D1"
41,7115,58,"html-slider-response",2,19820,"0.0-2.0-0.0","A1","K1","A1 K1"
41,2829,80,"html-slider-response",3,22753,"0.0-2.0-0.1","E1","J1","E1 J1"
41,2884,32,"html-slider-response",4,25741,"0.0-2.0-0.2","D1","I1","D1 I1"
41,3285,38,"html-slider-response",5,29129,"0.0-2.0-0.3","F1","G1","F1 G1"
41,2620,56,"html-slider-response",6,31852,"0.0-2.0-0.4","E1","F1","E1 F1"
41,2474,65,"html-slider-response",7,34428,"0.0-2.0-0.5","H1","L1","H1 L1"
41,2433,22,"html-slider-response",8,36964,"0.0-2.0-0.6","A1","I1","A1 I1"
41,3638,40,"html-slider-response",9,40705,"0.0-2.0-0.7","A1","E1","A1 E1"
41,2666,12,"html-slider-response",10,43476,"0.0-2.0-0.8","B1","D1","B1 D1"
41,2130,64,"html-slider-response",11,45710,"0.0-2.0-0.9","J1","L1","J1 L1"
41,2159,61,"html-slider-response",12,47971,"0.0-2.0-0.10","I1","L1","I1 L1"
41,2550,38,"html-slider-response",13,50624,"0.0-2.0-0.11","D1","G1","D1 G1"
41,2381,9,"html-slider-response",14,53109,"0.0-2.0-0.12","E1","G1","E1 G1"
41,3009,54,"html-slider-response",15,56339,"0.0-2.0-0.13","E1","K1","E1 K1"
41,2259,82,"html-slider-response",16,58702,"0.0-2.0-0.14","J1","K1","J1 K1"
41,2063,42,"html-slider-response",17,60878,"0.0-2.0-0.15","A1","J1","A1 J1"
41,2169,25,"html-slider-response",18,63151,"0.0-2.0-0.16","G1","I1","G1 I1"
41,2372,13,"html-slider-response",19,65627,"0.0-2.0-0.17","B1","L1","B1 L1"
41,4872,96,"html-slider-response",20,70602,"0.0-2.0-0.18","H1","K1","H1 K1"
41,3498,20,"html-slider-response",21,74202,"0.0-2.0-0.19","B1","K1","B1 K1"
41,2792,13,"html-slider-response",22,77138,"0.0-2.0-0.20","A1","H1","A1 H1"
41,2353,23,"html-slider-response",23,79597,"0.0-2.0-0.21","B1","E1","B1 E1"
42,6697,36,"html-slider-response",2,13345,"0.0-2.0-0.0","H1","L1","H1 L1"
42,4525,22,"html-slider-response",3,17972,"0.0-2.0-0.1","A1","H1","A1 H1"
42,4998,63,"html-slider-response",4,23073,"0.0-2.0-0.2","E1","J1","E1 J1"
42,1819,36,"html-slider-response",5,24994,"0.0-2.0-0.3","B1","E1","B1 E1"
42,2610,60,"html-slider-response",6,27706,"0.0-2.0-0.4","D1","I1","D1 I1"
42,1176,62,"html-slider-response",7,28983,"0.0-2.0-0.5","E1","K1","E1 K1"
42,2448,48,"html-slider-response",8,31532,"0.0-2.0-0.6","E1","G1","E1 G1"
42,2252,61,"html-slider-response",9,33886,"0.0-2.0-0.7","D1","G1","D1 G1"
42,1742,65,"html-slider-response",10,35730,"0.0-2.0-0.8","J1","L1","J1 L1"
42,1783,56,"html-slider-response",11,37616,"0.0-2.0-0.9","B1","L1","B1 L1"
42,1016,36,"html-slider-response",12,38734,"0.0-2.0-0.10","B1","D1","B1 D1"
42,1522,18,"html-slider-response",13,40358,"0.0-2.0-0.11","A1","K1","A1 K1"
42,1402,36,"html-slider-response",14,41861,"0.0-2.0-0.12","F1","G1","F1 G1"
42,2058,85,"html-slider-response",15,44021,"0.0-2.0-0.13","H1","K1","H1 K1"
42,2298,40,"html-slider-response",16,46421,"0.0-2.0-0.14","A1","I1","A1 I1"
42,1240,34,"html-slider-response",17,47762,"0.0-2.0-0.15","B1","K1","B1 K1"
42,1897,48,"html-slider-response",18,49762,"0.0-2.0-0.16","G1","I1","G1 I1"
42,1002,57,"html-slider-response",19,50866,"0.0-2.0-0.17","I1","L1","I1 L1"
42,1240,62,"html-slider-response",20,52207,"0.0-2.0-0.18","A1","E1","A1 E1"
42,2028,93,"html-slider-response",21,54336,"0.0-2.0-0.19","E1","F1","E1 F1"
42,1280,68,"html-slider-response",22,55717,"0.0-2.0-0.20","J1","K1","J1 K1"
42,1303,77,"html-slider-response",23,57122,"0.0-2.0-0.21","A1","J1","A1 J1"
43,5822,75,"html-slider-response",2,21574,"0.0-2.0-0.0","E1","F1","E1 F1"
43,8386,44,"html-slider-response",3,30064,"0.0-2.0-0.1","D1","G1","D1 G1"
43,4890,43,"html-slider-response",4,35066,"0.0-2.0-0.2","A1","E1","A1 E1"
43,3042,27,"html-slider-response",5,38226,"0.0-2.0-0.3","A1","K1","A1 K1"
43,2080,27,"html-slider-response",6,40414,"0.0-2.0-0.4","B1","D1","B1 D1"
43,3614,49,"html-slider-response",7,44132,"0.0-2.0-0.5","G1","I1","G1 I1"
43,4142,34,"html-slider-response",8,48378,"0.0-2.0-0.6","A1","H1","A1 H1"
43,3664,34,"html-slider-response",9,52148,"0.0-2.0-0.7","D1","I1","D1 I1"
43,2892,34,"html-slider-response",10,55146,"0.0-2.0-0.8","E1","G1","E1 G1"
43,2110,37,"html-slider-response",11,57374,"0.0-2.0-0.9","H1","L1","H1 L1"
43,3346,68,"html-slider-response",12,60826,"0.0-2.0-0.10","E1","J1","E1 J1"
43,10548,49,"html-slider-response",13,71480,"0.0-2.0-0.11","B1","K1","B1 K1"
43,3364,16,"html-slider-response",14,74956,"0.0-2.0-0.12","B1","E1","B1 E1"
43,3464,33,"html-slider-response",15,78534,"0.0-2.0-0.13","I1","L1","I1 L1"
43,5594,70,"html-slider-response",16,84232,"0.0-2.0-0.14","J1","L1","J1 L1"
43,4034,24,"html-slider-response",17,88376,"0.0-2.0-0.15","F1","G1","F1 G1"
43,2252,33,"html-slider-response",18,90734,"0.0-2.0-0.16","H1","K1","H1 K1"
43,3636,42,"html-slider-response",19,94478,"0.0-2.0-0.17","A1","J1","A1 J1"
43,2496,34,"html-slider-response",20,97076,"0.0-2.0-0.18","A1","I1","A1 I1"
43,2478,68,"html-slider-response",21,99660,"0.0-2.0-0.19","J1","K1","J1 K1"
43,2398,32,"html-slider-response",22,102168,"0.0-2.0-0.20","B1","L1","B1 L1"
43,5608,44,"html-slider-response",23,107888,"0.0-2.0-0.21","E1","K1","E1 K1"
44,7490,82,"html-slider-response",2,31620,"0.0-2.0-0.0","D1","I1","D1 I1"
44,3150,17,"html-slider-response",3,34873,"0.0-2.0-0.1","H1","K1","H1 K1"
44,4021,18,"html-slider-response",4,38997,"0.0-2.0-0.2","A1","E1","A1 E1"
44,2679,82,"html-slider-response",5,41777,"0.0-2.0-0.3","A1","I1","A1 I1"
44,2603,77,"html-slider-response",6,44481,"0.0-2.0-0.4","E1","F1","E1 F1"
44,3731,67,"html-slider-response",7,48315,"0.0-2.0-0.5","E1","K1","E1 K1"
44,2845,79,"html-slider-response",8,51262,"0.0-2.0-0.6","I1","L1","I1 L1"
44,3433,16,"html-slider-response",9,54798,"0.0-2.0-0.7","B1","L1","B1 L1"
44,3187,25,"html-slider-response",10,58087,"0.0-2.0-0.8","H1","L1","H1 L1"
44,2936,77,"html-slider-response",11,61126,"0.0-2.0-0.9","J1","L1","J1 L1"
44,3516,79,"html-slider-response",12,64769,"0.0-2.0-0.10","G1","I1","G1 I1"
44,3704,21,"html-slider-response",13,68575,"0.0-2.0-0.11","A1","H1","A1 H1"
44,2611,80,"html-slider-response",14,71289,"0.0-2.0-0.12","B1","D1","B1 D1"
44,3951,77,"html-slider-response",15,75343,"0.0-2.0-0.13","A1","K1","A1 K1"
44,5445,27,"html-slider-response",16,80890,"0.0-2.0-0.14","A1","J1","A1 J1"
44,2351,78,"html-slider-response",17,83343,"0.0-2.0-0.15","F1","G1","F1 G1"
44,3449,79,"html-slider-response",18,86894,"0.0-2.0-0.16","E1","J1","E1 J1"
44,2538,31,"html-slider-response",19,89536,"0.0-2.0-0.17","J1","K1","J1 K1"
44,2760,79,"html-slider-response",20,92401,"0.0-2.0-0.18","B1","E1","B1 E1"
44,2600,74,"html-slider-response",21,95105,"0.0-2.0-0.19","E1","G1","E1 G1"
44,3319,24,"html-slider-response",22,98526,"0.0-2.0-0.20","B1","K1","B1 K1"
44,2564,76,"html-slider-response",23,101192,"0.0-2.0-0.21","D1","G1","D1 G1"
45,7179,4,"html-slider-response",2,26022,"0.0-2.0-0.0","B1","D1","B1 D1"
45,4737,29,"html-slider-response",3,30861,"0.0-2.0-0.1","B1","L1","B1 L1"
45,4690,83,"html-slider-response",4,35654,"0.0-2.0-0.2","E1","J1","E1 J1"
45,4162,43,"html-slider-response",5,39918,"0.0-2.0-0.3","A1","I1","A1 I1"
45,5817,59,"html-slider-response",6,45838,"0.0-2.0-0.4","H1","L1","H1 L1"
45,6650,20,"html-slider-response",7,52590,"0.0-2.0-0.5","D1","I1","D1 I1"
45,4505,41,"html-slider-response",8,57198,"0.0-2.0-0.6","E1","G1","E1 G1"
45,7633,71,"html-slider-response",9,64934,"0.0-2.0-0.7","E1","F1","E1 F1"
45,5257,73,"html-slider-response",10,70294,"0.0-2.0-0.8","J1","K1","J1 K1"
45,5817,51,"html-slider-response",11,76213,"0.0-2.0-0.9","E1","K1","E1 K1"
45,4945,38,"html-slider-response",12,81262,"0.0-2.0-0.10","B1","K1","B1 K1"
45,8681,64,"html-slider-response",13,90046,"0.0-2.0-0.11","J1","L1","J1 L1"
45,6401,1,"html-slider-response",14,96550,"0.0-2.0-0.12","D1","G1","D1 G1"
45,6353,83,"html-slider-response",15,103005,"0.0-2.0-0.13","H1","K1","H1 K1"
45,5409,73,"html-slider-response",16,108517,"0.0-2.0-0.14","I1","L1","I1 L1"
45,5681,39,"html-slider-response",17,114301,"0.0-2.0-0.15","A1","K1","A1 K1"
45,4611,21,"html-slider-response",18,119015,"0.0-2.0-0.16","A1","J1","A1 J1"
45,8178,13,"html-slider-response",19,127295,"0.0-2.0-0.17","A1","E1","A1 E1"
45,6225,6,"html-slider-response",20,133622,"0.0-2.0-0.18","A1","H1","A1 H1"
45,5914,40,"html-slider-response",21,139638,"0.0-2.0-0.19","F1","G1","F1 G1"
45,7864,19,"html-slider-response",22,147606,"0.0-2.0-0.20","B1","E1","B1 E1"
45,9818,54,"html-slider-response",23,157526,"0.0-2.0-0.21","G1","I1","G1 I1"
46,4296,40,"html-slider-response",2,12248,"0.0-2.0-0.0","E1","G1","E1 G1"
46,3430,72,"html-slider-response",3,15780,"0.0-2.0-0.1","D1","I1","D1 I1"
46,2904,52,"html-slider-response",4,18788,"0.0-2.0-0.2","A1","J1","A1 J1"
46,6117,78,"html-slider-response",5,25006,"0.0-2.0-0.3","H1","L1","H1 L1"
46,2808,27,"html-slider-response",6,27916,"0.0-2.0-0.4","A1","K1","A1 K1"
46,2317,36,"html-slider-response",7,30334,"0.0-2.0-0.5","A1","E1","A1 E1"
46,2599,66,"html-slider-response",8,33034,"0.0-2.0-0.6","J1","K1","J1 K1"
46,2742,26,"html-slider-response",9,35879,"0.0-2.0-0.7","E1","K1","E1 K1"
46,2058,67,"html-slider-response",10,38039,"0.0-2.0-0.8","I1","L1","I1 L1"
46,2406,24,"html-slider-response",11,40546,"0.0-2.0-0.9","D1","G1","D1 G1"
46,2237,58,"html-slider-response",12,42884,"0.0-2.0-0.10","G1","I1","G1 I1"
46,3628,26,"html-slider-response",13,46614,"0.0-2.0-0.11","B1","L1","B1 L1"
46,2789,64,"html-slider-response",14,49505,"0.0-2.0-0.12","H1","K1","H1 K1"
46,3173,25,"html-slider-response",15,52781,"0.0-2.0-0.13","J1","L1","J1 L1"
46,2380,71,"html-slider-response",16,55261,"0.0-2.0-0.14","E1","F1","E1 F1"
46,2147,61,"html-slider-response",17,57510,"0.0-2.0-0.15","E1","J1","E1 J1"
46,2306,26,"html-slider-response",18,59918,"0.0-2.0-0.16","A1","H1","A1 H1"
46,1911,62,"html-slider-response",19,61931,"0.0-2.0-0.17","B1","K1","B1 K1"
46,2220,26,"html-slider-response",20,64252,"0.0-2.0-0.18","A1","I1","A1 I1"
46,2090,54,"html-slider-response",21,66443,"0.0-2.0-0.19","F1","G1","F1 G1"
46,2800,39,"html-slider-response",22,69345,"0.0-2.0-0.20","B1","E1","B1 E1"
46,1655,34,"html-slider-response",23,71100,"0.0-2.0-0.21","B1","D1","B1 D1"
47,7821,15,"html-slider-response",2,33213,"0.0-2.0-0.0","E1","K1","E1 K1"
47,5707,28,"html-slider-response",3,39022,"0.0-2.0-0.1","B1","L1","B1 L1"
47,8135,37,"html-slider-response",4,47259,"0.0-2.0-0.2","I1","L1","I1 L1"
47,20409,48,"html-slider-response",5,67769,"0.0-2.0-0.3","A1","J1","A1 J1"
47,6723,51,"html-slider-response",6,74593,"0.0-2.0-0.4","A1","H1","A1 H1"
47,5855,51,"html-slider-response",7,80549,"0.0-2.0-0.5","F1","G1","F1 G1"
47,3333,56,"html-slider-response",8,83982,"0.0-2.0-0.6","A1","I1","A1 I1"
47,3865,58,"html-slider-response",9,87948,"0.0-2.0-0.7","A1","E1","A1 E1"
47,3784,53,"html-slider-response",10,91834,"0.0-2.0-0.8","B1","E1","B1 E1"
47,4053,43,"html-slider-response",11,95988,"0.0-2.0-0.9","E1","G1","E1 G1"
47,5383,66,"html-slider-response",12,101472,"0.0-2.0-0.10","H1","K1","H1 K1"
47,4112,66,"html-slider-response",13,105686,"0.0-2.0-0.11","H1","L1","H1 L1"
47,6903,81,"html-slider-response",14,112691,"0.0-2.0-0.12","J1","K1","J1 K1"
47,3962,60,"html-slider-response",15,116754,"0.0-2.0-0.13","D1","G1","D1 G1"
47,3098,77,"html-slider-response",16,119954,"0.0-2.0-0.14","J1","L1","J1 L1"
47,3055,39,"html-slider-response",17,123109,"0.0-2.0-0.15","B1","D1","B1 D1"
47,2777,51,"html-slider-response",18,125988,"0.0-2.0-0.16","G1","I1","G1 I1"
47,3543,58,"html-slider-response",19,129634,"0.0-2.0-0.17","E1","J1","E1 J1"
47,2434,57,"html-slider-response",20,132170,"0.0-2.0-0.18","E1","F1","E1 F1"
47,2699,49,"html-slider-response",21,134970,"0.0-2.0-0.19","A1","K1","A1 K1"
47,3871,44,"html-slider-response",22,138943,"0.0-2.0-0.20","B1","K1","B1 K1"
47,3072,45,"html-slider-response",23,142117,"0.0-2.0-0.21","D1","I1","D1 I1"
48,5425,5,"html-slider-response",2,23571,"0.0-2.0-0.0","A1","K1","A1 K1"
48,2880,20,"html-slider-response",3,26555,"0.0-2.0-0.1","A1","H1","A1 H1"
48,3631,17,"html-slider-response",4,30287,"0.0-2.0-0.2","A1","I1","A1 I1"
48,2361,1,"html-slider-response",5,32752,"0.0-2.0-0.3","A1","E1","A1 E1"
48,2932,19,"html-slider-response",6,35790,"0.0-2.0-0.4","B1","D1","B1 D1"
48,4441,36,"html-slider-response",7,40333,"0.0-2.0-0.5","H1","K1","H1 K1"
48,2899,11,"html-slider-response",8,43337,"0.0-2.0-0.6","B1","K1","B1 K1"
48,8434,54,"html-slider-response",9,51873,"0.0-2.0-0.7","A1","J1","A1 J1"
48,2681,62,"html-slider-response",10,54656,"0.0-2.0-0.8","I1","L1","I1 L1"
48,2213,76,"html-slider-response",11,56973,"0.0-2.0-0.9","J1","L1","J1 L1"
48,2562,13,"html-slider-response",12,59637,"0.0-2.0-0.10","E1","K1","E1 K1"
48,8059,3,"html-slider-response",13,67797,"0.0-2.0-0.11","D1","I1","D1 I1"
48,2642,0,"html-slider-response",14,70540,"0.0-2.0-0.12","E1","G1","E1 G1"
48,2982,10,"html-slider-response",15,73625,"0.0-2.0-0.13","E1","J1","E1 J1"
48,3675,4,"html-slider-response",16,77405,"0.0-2.0-0.14","D1","G1","D1 G1"
48,2708,26,"html-slider-response",17,80218,"0.0-2.0-0.15","F1","G1","F1 G1"
48,2172,64,"html-slider-response",18,82495,"0.0-2.0-0.16","G1","I1","G1 I1"
48,2190,21,"html-slider-response",19,84789,"0.0-2.0-0.17","B1","E1","B1 E1"
48,2424,56,"html-slider-response",20,87314,"0.0-2.0-0.18","H1","L1","H1 L1"
48,2205,68,"html-slider-response",21,89622,"0.0-2.0-0.19","E1","F1","E1 F1"
48,2595,83,"html-slider-response",22,92321,"0.0-2.0-0.20","J1","K1","J1 K1"
48,2942,19,"html-slider-response",23,95369,"0.0-2.0-0.21","B1","L1","B1 L1"
49,4778,0,"html-slider-response",2,15870,"0.0-2.0-0.0","E1","G1","E1 G1"
49,3310,24,"html-slider-response",3,19288,"0.0-2.0-0.1","B1","D1","B1 D1"
49,2428,47,"html-slider-response",4,21822,"0.0-2.0-0.2","A1","E1","A1 E1"
49,2074,57,"html-slider-response",5,24004,"0.0-2.0-0.3","H1","L1","H1 L1"
49,2258,44,"html-slider-response",6,26368,"0.0-2.0-0.4","E1","J1","E1 J1"
49,1982,68,"html-slider-response",7,28456,"0.0-2.0-0.5","J1","K1","J1 K1"
49,2504,49,"html-slider-response",8,31070,"0.0-2.0-0.6","B1","L1","B1 L1"
49,2596,47,"html-slider-response",9,33772,"0.0-2.0-0.7","G1","I1","G1 I1"
49,2492,32,"html-slider-response",10,36372,"0.0-2.0-0.8","A1","H1","A1 H1"
49,2252,13,"html-slider-response",11,38732,"0.0-2.0-0.9","A1","I1","A1 I1"
49,2492,6,"html-slider-response",12,41332,"0.0-2.0-0.10","B1","E1","B1 E1"
49,1964,63,"html-slider-response",13,43404,"0.0-2.0-0.11","J1","L1","J1 L1"
49,1854,31,"html-slider-response",14,45366,"0.0-2.0-0.12","A1","J1","A1 J1"
49,1838,80,"html-slider-response",15,47314,"0.0-2.0-0.13","E1","F1","E1 F1"
49,2086,16,"html-slider-response",16,49508,"0.0-2.0-0.14","D1","G1","D1 G1"
49,2244,15,"html-slider-response",17,51860,"0.0-2.0-0.15","D1","I1","D1 I1"
49,2336,48,"html-slider-response",18,54302,"0.0-2.0-0.16","A1","K1","A1 K1"
49,2028,12,"html-slider-response",19,56436,"0.0-2.0-0.17","E1","K1","E1 K1"
49,3124,77,"html-slider-response",20,59668,"0.0-2.0-0.18","H1","K1","H1 K1"
49,2016,25,"html-slider-response",21,61790,"0.0-2.0-0.19","B1","K1","B1 K1"
49,1764,76,"html-slider-response",22,63660,"0.0-2.0-0.20","I1","L1","I1 L1"
49,1994,18,"html-slider-response",23,65762,"0.0-2.0-0.21","F1","G1","F1 G1"
50,37846,15,"html-slider-response",2,51338,"0.0-2.0-0.0","E1","G1","E1 G1"
50,7795,0,"html-slider-response",3,59236,"0.0-2.0-0.1","H1","L1","H1 L1"
50,6622,83,"html-slider-response",4,65959,"0.0-2.0-0.2","E1","K1","E1 K1"
50,5052,15,"html-slider-response",5,71114,"0.0-2.0-0.3","A1","I1","A1 I1"
50,6042,80,"html-slider-response",6,77257,"0.0-2.0-0.4","E1","J1","E1 J1"
50,15841,11,"html-slider-response",7,93200,"0.0-2.0-0.5","A1","J1","A1 J1"
50,3590,86,"html-slider-response",8,96892,"0.0-2.0-0.6","E1","F1","E1 F1"
50,4630,0,"html-slider-response",9,101624,"0.0-2.0-0.7","B1","L1","B1 L1"
50,6585,100,"html-slider-response",10,108311,"0.0-2.0-0.8","D1","G1","D1 G1"
50,24390,0,"html-slider-response",11,132804,"0.0-2.0-0.9","B1","K1","B1 K1"
50,25036,81,"html-slider-response",12,157942,"0.0-2.0-0.10","D1","I1","D1 I1"
50,5265,100,"html-slider-response",13,163310,"0.0-2.0-0.11","J1","K1","J1 K1"
50,3111,29,"html-slider-response",14,166522,"0.0-2.0-0.12","I1","L1","I1 L1"
50,4437,69,"html-slider-response",15,171060,"0.0-2.0-0.13","A1","K1","A1 K1"
50,15428,71,"html-slider-response",16,186590,"0.0-2.0-0.14","A1","H1","A1 H1"
50,2666,100,"html-slider-response",17,189360,"0.0-2.0-0.15","H1","K1","H1 K1"
50,8403,38,"html-slider-response",18,197866,"0.0-2.0-0.16","B1","D1","B1 D1"
50,11753,29,"html-slider-response",19,209720,"0.0-2.0-0.17","J1","L1","J1 L1"
50,4158,85,"html-slider-response",20,213980,"0.0-2.0-0.18","A1","E1","A1 E1"
50,7304,69,"html-slider-response",21,221386,"0.0-2.0-0.19","G1","I1","G1 I1"
50,4205,0,"html-slider-response",22,225694,"0.0-2.0-0.20","B1","E1","B1 E1"
50,4914,60,"html-slider-response",23,230710,"0.0-2.0-0.21","F1","G1","F1 G1"
51,5745,10,"html-slider-response",2,22077,"0.0-2.0-0.0","I1","L1","I1 L1"
51,2556,11,"html-slider-response",3,24748,"0.0-2.0-0.1","B1","E1","B1 E1"
51,2594,6,"html-slider-response",4,27444,"0.0-2.0-0.2","D1","G1","D1 G1"
51,2722,63,"html-slider-response",5,30268,"0.0-2.0-0.3","A1","H1","A1 H1"
51,10977,46,"html-slider-response",6,41348,"0.0-2.0-0.4","F1","G1","F1 G1"
51,3139,43,"html-slider-response",7,44588,"0.0-2.0-0.5","E1","J1","E1 J1"
51,2953,78,"html-slider-response",8,47644,"0.0-2.0-0.6","B1","L1","B1 L1"
51,2835,86,"html-slider-response",9,50580,"0.0-2.0-0.7","J1","K1","J1 K1"
51,2506,29,"html-slider-response",10,53189,"0.0-2.0-0.8","E1","G1","E1 G1"
51,2899,65,"html-slider-response",11,56188,"0.0-2.0-0.9","H1","K1","H1 K1"
51,2217,78,"html-slider-response",12,58508,"0.0-2.0-0.10","H1","L1","H1 L1"
51,4098,42,"html-slider-response",13,62709,"0.0-2.0-0.11","D1","I1","D1 I1"
51,3162,45,"html-slider-response",14,65972,"0.0-2.0-0.12","A1","I1","A1 I1"
51,3836,78,"html-slider-response",15,69909,"0.0-2.0-0.13","B1","K1","B1 K1"
51,2537,41,"html-slider-response",16,72548,"0.0-2.0-0.14","E1","K1","E1 K1"
51,2178,33,"html-slider-response",17,74828,"0.0-2.0-0.15","B1","D1","B1 D1"
51,2619,38,"html-slider-response",18,77549,"0.0-2.0-0.16","A1","K1","A1 K1"
51,2529,36,"html-slider-response",19,80181,"0.0-2.0-0.17","A1","J1","A1 J1"
51,2186,30,"html-slider-response",20,82468,"0.0-2.0-0.18","A1","E1","A1 E1"
51,2810,62,"html-slider-response",21,85381,"0.0-2.0-0.19","J1","L1","J1 L1"
51,4426,58,"html-slider-response",22,89908,"0.0-2.0-0.20","G1","I1","G1 I1"
51,2738,100,"html-slider-response",23,92748,"0.0-2.0-0.21","E1","F1","E1 F1"
52,3705,0,"html-slider-response",2,159111,"0.0-2.0-0.0","B1","D1","B1 D1"
52,2367,0,"html-slider-response",3,161582,"0.0-2.0-0.1","F1","G1","F1 G1"
52,2548,13,"html-slider-response",4,164231,"0.0-2.0-0.2","E1","F1","E1 F1"
52,2418,0,"html-slider-response",5,166749,"0.0-2.0-0.3","E1","G1","E1 G1"
52,2490,9,"html-slider-response",6,169341,"0.0-2.0-0.4","E1","J1","E1 J1"
52,2354,6,"html-slider-response",7,171798,"0.0-2.0-0.5","I1","L1","I1 L1"
52,1812,0,"html-slider-response",8,173710,"0.0-2.0-0.6","H1","L1","H1 L1"
52,2018,17,"html-slider-response",9,175829,"0.0-2.0-0.7","J1","K1","J1 K1"
52,2540,49,"html-slider-response",10,178470,"0.0-2.0-0.8","J1","L1","J1 L1"
52,1834,0,"html-slider-response",11,180406,"0.0-2.0-0.9","G1","I1","G1 I1"
52,2725,0,"html-slider-response",12,183231,"0.0-2.0-0.10","B1","K1","B1 K1"
52,2089,0,"html-slider-response",13,185422,"0.0-2.0-0.11","B1","E1","B1 E1"
52,21954,6,"html-slider-response",14,207478,"0.0-2.0-0.12","B1","L1","B1 L1"
52,8514,4,"html-slider-response",15,216094,"0.0-2.0-0.13","A1","I1","A1 I1"
52,1569,1,"html-slider-response",16,217765,"0.0-2.0-0.14","A1","J1","A1 J1"
52,1419,0,"html-slider-response",17,219286,"0.0-2.0-0.15","H1","K1","H1 K1"
52,1509,5,"html-slider-response",18,220895,"0.0-2.0-0.16","A1","H1","A1 H1"
52,1418,4,"html-slider-response",19,222413,"0.0-2.0-0.17","A1","E1","A1 E1"
52,1738,3,"html-slider-response",20,224253,"0.0-2.0-0.18","D1","I1","D1 I1"
52,8347,8,"html-slider-response",21,232703,"0.0-2.0-0.19","D1","G1","D1 G1"
52,1363,7,"html-slider-response",22,234167,"0.0-2.0-0.20","E1","K1","E1 K1"
52,1314,5,"html-slider-response",23,235581,"0.0-2.0-0.21","A1","K1","A1 K1"
53,4995,80,"html-slider-response",2,19023,"0.0-2.0-0.0","J1","L1","J1 L1"
53,2706,9,"html-slider-response",3,21834,"0.0-2.0-0.1","A1","J1","A1 J1"
53,4273,2,"html-slider-response",4,26210,"0.0-2.0-0.2","D1","G1","D1 G1"
53,3904,10,"html-slider-response",5,30215,"0.0-2.0-0.3","B1","L1","B1 L1"
53,3710,7,"html-slider-response",6,34028,"0.0-2.0-0.4","B1","E1","B1 E1"
53,3983,77,"html-slider-response",7,38113,"0.0-2.0-0.5","E1","J1","E1 J1"
53,12093,5,"html-slider-response",8,50308,"0.0-2.0-0.6","A1","H1","A1 H1"
53,2555,87,"html-slider-response",9,52965,"0.0-2.0-0.7","J1","K1","J1 K1"
53,2289,14,"html-slider-response",10,55357,"0.0-2.0-0.8","A1","K1","A1 K1"
53,3249,18,"html-slider-response",11,58707,"0.0-2.0-0.9","F1","G1","F1 G1"
53,2632,76,"html-slider-response",12,61443,"0.0-2.0-0.10","E1","K1","E1 K1"
53,2927,10,"html-slider-response",13,64471,"0.0-2.0-0.11","E1","G1","E1 G1"
53,2703,18,"html-slider-response",14,67276,"0.0-2.0-0.12","H1","L1","H1 L1"
53,2649,83,"html-slider-response",15,70027,"0.0-2.0-0.13","E1","F1","E1 F1"
53,2638,68,"html-slider-response",16,72769,"0.0-2.0-0.14","I1","L1","I1 L1"
53,2490,64,"html-slider-response",17,75362,"0.0-2.0-0.15","G1","I1","G1 I1"
53,3446,6,"html-slider-response",18,78909,"0.0-2.0-0.16","B1","D1","B1 D1"
53,3911,9,"html-slider-response",19,82922,"0.0-2.0-0.17","A1","E1","A1 E1"
53,2541,15,"html-slider-response",20,85569,"0.0-2.0-0.18","B1","K1","B1 K1"
53,2648,9,"html-slider-response",21,88320,"0.0-2.0-0.19","A1","I1","A1 I1"
53,4250,15,"html-slider-response",22,92672,"0.0-2.0-0.20","D1","I1","D1 I1"
53,3884,55,"html-slider-response",23,96658,"0.0-2.0-0.21","H1","K1","H1 K1"
54,3357,35,"html-slider-response",2,8628,"0.0-2.0-0.0","I1","L1","I1 L1"
54,2243,26,"html-slider-response",3,10972,"0.0-2.0-0.1","H1","L1","H1 L1"
54,1995,20,"html-slider-response",4,13068,"0.0-2.0-0.2","A1","E1","A1 E1"
54,1842,26,"html-slider-response",5,15011,"0.0-2.0-0.3","A1","I1","A1 I1"
54,1530,62,"html-slider-response",6,16643,"0.0-2.0-0.4","E1","F1","E1 F1"
54,50635,54,"html-slider-response",7,67380,"0.0-2.0-0.5","G1","I1","G1 I1"
54,1546,41,"html-slider-response",8,69028,"0.0-2.0-0.6","H1","K1","H1 K1"
54,1386,41,"html-slider-response",9,70516,"0.0-2.0-0.7","A1","J1","A1 J1"
54,1265,59,"html-slider-response",10,71883,"0.0-2.0-0.8","B1","K1","B1 K1"
54,1363,66,"html-slider-response",11,73348,"0.0-2.0-0.9","J1","L1","J1 L1"
54,1418,62,"html-slider-response",12,74867,"0.0-2.0-0.10","A1","H1","A1 H1"
54,1179,61,"html-slider-response",13,76148,"0.0-2.0-0.11","E1","G1","E1 G1"
54,1193,66,"html-slider-response",14,77443,"0.0-2.0-0.12","B1","E1","B1 E1"
54,2266,79,"html-slider-response",15,79812,"0.0-2.0-0.13","D1","I1","D1 I1"
54,1026,64,"html-slider-response",16,80939,"0.0-2.0-0.14","B1","L1","B1 L1"
54,899,74,"html-slider-response",17,81940,"0.0-2.0-0.15","F1","G1","F1 G1"
54,1443,85,"html-slider-response",18,83484,"0.0-2.0-0.16","J1","K1","J1 K1"
54,1234,72,"html-slider-response",19,84819,"0.0-2.0-0.17","E1","J1","E1 J1"
54,1027,76,"html-slider-response",20,85948,"0.0-2.0-0.18","D1","G1","D1 G1"
54,1202,71,"html-slider-response",21,87251,"0.0-2.0-0.19","B1","D1","B1 D1"
54,994,75,"html-slider-response",22,88347,"0.0-2.0-0.20","A1","K1","A1 K1"
54,1044,69,"html-slider-response",23,89492,"0.0-2.0-0.21","E1","K1","E1 K1"
55,4459,52,"html-slider-response",2,14465,"0.0-2.0-0.0","B1","L1","B1 L1"
55,3471,44,"html-slider-response",3,18040,"0.0-2.0-0.1","F1","G1","F1 G1"
55,4098,47,"html-slider-response",4,22240,"0.0-2.0-0.2","H1","K1","H1 K1"
55,4371,24,"html-slider-response",5,26712,"0.0-2.0-0.3","B1","E1","B1 E1"
55,3450,16,"html-slider-response",6,30263,"0.0-2.0-0.4","A1","K1","A1 K1"
55,2625,53,"html-slider-response",7,32991,"0.0-2.0-0.5","E1","K1","E1 K1"
55,2738,36,"html-slider-response",8,35832,"0.0-2.0-0.6","I1","L1","I1 L1"
55,3218,62,"html-slider-response",9,39153,"0.0-2.0-0.7","E1","J1","E1 J1"
55,5522,16,"html-slider-response",10,44775,"0.0-2.0-0.8","A1","I1","A1 I1"
55,5339,6,"html-slider-response",11,50218,"0.0-2.0-0.9","D1","I1","D1 I1"
55,2647,19,"html-slider-response",12,52968,"0.0-2.0-0.10","G1","I1","G1 I1"
55,3392,28,"html-slider-response",13,56496,"0.0-2.0-0.11","E1","F1","E1 F1"
55,3418,56,"html-slider-response",14,60015,"0.0-2.0-0.12","J1","K1","J1 K1"
55,3434,56,"html-slider-response",15,63552,"0.0-2.0-0.13","D1","G1","D1 G1"
55,2225,36,"html-slider-response",16,65879,"0.0-2.0-0.14","J1","L1","J1 L1"
55,3498,19,"html-slider-response",17,69479,"0.0-2.0-0.15","B1","D1","B1 D1"
55,4099,33,"html-slider-response",18,73680,"0.0-2.0-0.16","A1","H1","A1 H1"
55,3912,12,"html-slider-response",19,77696,"0.0-2.0-0.17","A1","J1","A1 J1"
55,3274,10,"html-slider-response",20,81072,"0.0-2.0-0.18","A1","E1","A1 E1"
55,1954,54,"html-slider-response",21,83128,"0.0-2.0-0.19","H1","L1","H1 L1"
55,2033,33,"html-slider-response",22,85264,"0.0-2.0-0.20","E1","G1","E1 G1"
55,2528,11,"html-slider-response",23,87895,"0.0-2.0-0.21","B1","K1","B1 K1"
56,8003,18,"html-slider-response",2,48353,"0.0-2.0-0.0","F1","G1","F1 G1"
56,6000,57,"html-slider-response",3,54453,"0.0-2.0-0.1","A1","K1","A1 K1"
56,5512,43,"html-slider-response",4,60066,"0.0-2.0-0.2","B1","L1","B1 L1"
56,9344,46,"html-slider-response",5,69512,"0.0-2.0-0.3","D1","I1","D1 I1"
56,4171,26,"html-slider-response",6,73785,"0.0-2.0-0.4","B1","E1","B1 E1"
56,4006,75,"html-slider-response",7,77892,"0.0-2.0-0.5","E1","F1","E1 F1"
56,3709,61,"html-slider-response",8,81702,"0.0-2.0-0.6","J1","L1","J1 L1"
56,5870,35,"html-slider-response",9,87674,"0.0-2.0-0.7","A1","I1","A1 I1"
56,5794,33,"html-slider-response",10,93571,"0.0-2.0-0.8","E1","K1","E1 K1"
56,4666,54,"html-slider-response",11,98337,"0.0-2.0-0.9","H1","L1","H1 L1"
56,6231,45,"html-slider-response",12,104669,"0.0-2.0-0.10","A1","J1","A1 J1"
56,3748,42,"html-slider-response",13,108518,"0.0-2.0-0.11","B1","K1","B1 K1"
56,4390,55,"html-slider-response",14,113010,"0.0-2.0-0.12","J1","K1","J1 K1"
56,5299,16,"html-slider-response",15,118411,"0.0-2.0-0.13","G1","I1","G1 I1"
56,7503,17,"html-slider-response",16,126016,"0.0-2.0-0.14","B1","D1","B1 D1"
56,4327,58,"html-slider-response",17,130443,"0.0-2.0-0.15","A1","E1","A1 E1"
56,5567,35,"html-slider-response",18,136111,"0.0-2.0-0.16","A1","H1","A1 H1"
56,3958,29,"html-slider-response",19,140171,"0.0-2.0-0.17","E1","G1","E1 G1"
56,5360,38,"html-slider-response",20,145633,"0.0-2.0-0.18","H1","K1","H1 K1"
56,4924,33,"html-slider-response",21,150659,"0.0-2.0-0.19","I1","L1","I1 L1"
56,5213,55,"html-slider-response",22,155974,"0.0-2.0-0.20","E1","J1","E1 J1"
56,4703,35,"html-slider-response",23,160778,"0.0-2.0-0.21","D1","G1","D1 G1"
57,7960,31,"html-slider-response",2,50387,"0.0-2.0-0.0","E1","G1","E1 G1"
57,17964,68,"html-slider-response",3,68453,"0.0-2.0-0.1","A1","I1","A1 I1"
57,13099,28,"html-slider-response",4,81653,"0.0-2.0-0.2","B1","D1","B1 D1"
57,8675,60,"html-slider-response",5,90430,"0.0-2.0-0.3","A1","J1","A1 J1"
57,3557,11,"html-slider-response",6,94090,"0.0-2.0-0.4","B1","L1","B1 L1"
57,4453,30,"html-slider-response",7,98645,"0.0-2.0-0.5","D1","I1","D1 I1"
57,3814,41,"html-slider-response",8,102769,"0.0-2.0-0.6","A1","E1","A1 E1"
57,3990,3,"html-slider-response",9,106861,"0.0-2.0-0.7","H1","L1","H1 L1"
57,8732,4,"html-slider-response",10,115695,"0.0-2.0-0.8","D1","G1","D1 G1"
57,8857,4,"html-slider-response",11,124653,"0.0-2.0-0.9","A1","H1","A1 H1"
57,3197,64,"html-slider-response",12,127952,"0.0-2.0-0.10","E1","K1","E1 K1"
57,7578,13,"html-slider-response",13,135633,"0.0-2.0-0.11","B1","E1","B1 E1"
57,5000,70,"html-slider-response",14,140735,"0.0-2.0-0.12","E1","F1","E1 F1"
57,6201,60,"html-slider-response",15,147037,"0.0-2.0-0.13","B1","K1","B1 K1"
57,5319,37,"html-slider-response",16,152458,"0.0-2.0-0.14","I1","L1","I1 L1"
57,3966,82,"html-slider-response",17,156528,"0.0-2.0-0.15","H1","K1","H1 K1"
57,11991,87,"html-slider-response",18,168621,"0.0-2.0-0.16","J1","L1","J1 L1"
57,3096,5,"html-slider-response",19,171819,"0.0-2.0-0.17","G1","I1","G1 I1"
57,3240,4,"html-slider-response",20,175167,"0.0-2.0-0.18","F1","G1","F1 G1"
57,3543,90,"html-slider-response",21,178811,"0.0-2.0-0.19","J1","K1","J1 K1"
57,11002,24,"html-slider-response",22,189917,"0.0-2.0-0.20","A1","K1","A1 K1"
57,4774,26,"html-slider-response",23,194794,"0.0-2.0-0.21","E1","J1","E1 J1"
58,5211,61,"html-slider-response",2,18391,"0.0-2.0-0.0","H1","K1","H1 K1"
58,2398,59,"html-slider-response",3,20903,"0.0-2.0-0.1","E1","F1","E1 F1"
58,2036,60,"html-slider-response",4,23046,"0.0-2.0-0.2","J1","K1","J1 K1"
58,2467,42,"html-slider-response",5,25618,"0.0-2.0-0.3","B1","L1","B1 L1"
58,2452,31,"html-slider-response",6,28174,"0.0-2.0-0.4","A1","J1","A1 J1"
58,3580,28,"html-slider-response",7,31857,"0.0-2.0-0.5","D1","I1","D1 I1"
58,1908,43,"html-slider-response",8,33869,"0.0-2.0-0.6","I1","L1","I1 L1"
58,1970,42,"html-slider-response",9,35943,"0.0-2.0-0.7","A1","K1","A1 K1"
58,2162,38,"html-slider-response",10,38208,"0.0-2.0-0.8","G1","I1","G1 I1"
58,2173,39,"html-slider-response",11,40485,"0.0-2.0-0.9","E1","J1","E1 J1"
58,1783,38,"html-slider-response",12,42372,"0.0-2.0-0.10","B1","E1","B1 E1"
58,1691,42,"html-slider-response",13,44166,"0.0-2.0-0.11","A1","I1","A1 I1"
58,2198,36,"html-slider-response",14,46467,"0.0-2.0-0.12","E1","K1","E1 K1"
58,2280,36,"html-slider-response",15,48851,"0.0-2.0-0.13","A1","H1","A1 H1"
58,1700,37,"html-slider-response",16,50658,"0.0-2.0-0.14","F1","G1","F1 G1"
58,2672,33,"html-slider-response",17,53435,"0.0-2.0-0.15","B1","K1","B1 K1"
58,2647,40,"html-slider-response",18,56186,"0.0-2.0-0.16","H1","L1","H1 L1"
58,7145,45,"html-slider-response",19,63434,"0.0-2.0-0.17","D1","G1","D1 G1"
58,2070,42,"html-slider-response",20,65607,"0.0-2.0-0.18","J1","L1","J1 L1"
58,1918,46,"html-slider-response",21,67627,"0.0-2.0-0.19","A1","E1","A1 E1"
58,5579,53,"html-slider-response",22,73309,"0.0-2.0-0.20","B1","D1","B1 D1"
58,2791,53,"html-slider-response",23,76204,"0.0-2.0-0.21","E1","G1","E1 G1"
59,4555,26,"html-slider-response",2,51546,"0.0-2.0-0.0","G1","I1","G1 I1"
59,2648,14,"html-slider-response",3,54297,"0.0-2.0-0.1","E1","G1","E1 G1"
59,2514,59,"html-slider-response",4,56914,"0.0-2.0-0.2","B1","E1","B1 E1"
59,2384,25,"html-slider-response",5,59410,"0.0-2.0-0.3","F1","G1","F1 G1"
59,2312,56,"html-slider-response",6,61836,"0.0-2.0-0.4","E1","K1","E1 K1"
59,2671,34,"html-slider-response",7,64610,"0.0-2.0-0.5","D1","G1","D1 G1"
59,2935,55,"html-slider-response",8,67650,"0.0-2.0-0.6","I1","L1","I1 L1"
59,3092,13,"html-slider-response",9,70859,"0.0-2.0-0.7","B1","L1","B1 L1"
59,2664,55,"html-slider-response",10,73635,"0.0-2.0-0.8","A1","K1","A1 K1"
59,2463,70,"html-slider-response",11,76211,"0.0-2.0-0.9","H1","K1","H1 K1"
59,2481,8,"html-slider-response",12,78795,"0.0-2.0-0.10","A1","E1","A1 E1"
59,2117,66,"html-slider-response",13,81025,"0.0-2.0-0.11","J1","L1","J1 L1"
59,2272,78,"html-slider-response",14,83409,"0.0-2.0-0.12","H1","L1","H1 L1"
59,3779,26,"html-slider-response",15,87291,"0.0-2.0-0.13","A1","I1","A1 I1"
59,2386,82,"html-slider-response",16,89778,"0.0-2.0-0.14","E1","F1","E1 F1"
59,2338,62,"html-slider-response",17,92217,"0.0-2.0-0.15","B1","D1","B1 D1"
59,2276,57,"html-slider-response",18,94594,"0.0-2.0-0.16","D1","I1","D1 I1"
59,5969,31,"html-slider-response",19,100667,"0.0-2.0-0.17","A1","H1","A1 H1"
59,2631,72,"html-slider-response",20,103402,"0.0-2.0-0.18","E1","J1","E1 J1"
59,5085,24,"html-slider-response",21,108603,"0.0-2.0-0.19","B1","K1","B1 K1"
59,2056,60,"html-slider-response",22,110761,"0.0-2.0-0.20","J1","K1","J1 K1"
59,1891,28,"html-slider-response",23,112754,"0.0-2.0-0.21","A1","J1","A1 J1"
60,8339,41,"html-slider-response",2,33000,"0.0-2.0-0.0","J1","K1","J1 K1"
60,5214,29,"html-slider-response",3,38317,"0.0-2.0-0.1","F1","G1","F1 G1"
60,3034,17,"html-slider-response",4,41483,"0.0-2.0-0.2","A1","K1","A1 K1"
60,3330,11,"html-slider-response",5,44916,"0.0-2.0-0.3","D1","G1","D1 G1"
60,3383,30,"html-slider-response",6,48402,"0.0-2.0-0.4","D1","I1","D1 I1"
60,3677,40,"html-slider-response",7,52181,"0.0-2.0-0.5","E1","J1","E1 J1"
60,3742,35,"html-slider-response",8,56024,"0.0-2.0-0.6","A1","J1","A1 J1"
60,5851,41,"html-slider-response",9,61976,"0.0-2.0-0.7","I1","L1","I1 L1"
60,3091,56,"html-slider-response",10,65170,"0.0-2.0-0.8","G1","I1","G1 I1"
60,3284,19,"html-slider-response",11,68557,"0.0-2.0-0.9","B1","D1","B1 D1"
60,4539,71,"html-slider-response",12,73198,"0.0-2.0-0.10","E1","F1","E1 F1"
60,3693,29,"html-slider-response",13,76994,"0.0-2.0-0.11","E1","K1","E1 K1"
